host_t_s,seq,t_ms,gyro_x,gyro_y,gyro_z,acc_x,acc_y,acc_z,gyro_norm,acc_norm,flags,used_for_fit
0.0044433389557525516,219,38809,0.013848437927663326,-0.006391586735844612,0.001065264455974102,-0.1435546875,-0.23507079482078552,9.80657958984375,0.01528942125782826,9.810446956118815,449,1
0.009477959014475346,220,38814,0.011717909015715122,0.008522115647792816,0.024501081556081772,-0.15791015326976776,-0.17406006157398224,9.785046577453613,0.028464694697690036,9.787868462769485,449,1
0.014474545954726636,221,38819,0.013848437927663326,0.00532632227987051,0.012783173471689224,-0.08074951171875,-0.21174316108226776,9.77248477935791,0.019584648734983435,9.775111989777404,449,1
0.019434759044088423,222,38824,0.003195793367922306,0.001065264455974102,-0.004261057823896408,-0.20456542074680328,-0.23865966498851776,9.792223930358887,0.005431804248148748,9.797267728777804,449,1
0.024438282009214163,223,38829,0.011717909015715122,-0.0,0.001065264455974102,-0.20097656548023224,-0.15970458090305328,9.80837345123291,0.011766230495011541,9.811732104571762,449,1
0.029568403027951717,224,38834,0.01065264455974102,0.007456851191818714,-0.004261057823896408,-0.15252685546875,-0.19200439751148224,9.747363090515137,0.01368356969477252,9.750447033271845,449,1
0.03444439801387489,225,38839,0.006391586735844612,-0.001065264455974102,0.003195793367922306,-0.18303222954273224,-0.28352048993110657,9.77248477935791,0.0072249750597107795,9.778309845164664,449,1
0.03944139205850661,226,38844,0.001065264455974102,0.011717909015715122,-0.002130528911948204,-0.09151611477136612,-0.19200439751148224,9.837084770202637,0.011957563861689668,9.839384008365526,449,1
0.04450692899990827,227,38849,0.008522115647792816,-0.004261057823896408,0.003195793367922306,-0.0897216796875,-0.33735349774360657,9.767102241516113,0.010049684778310222,9.773338403967953,449,0
0.0495343740331009,228,38854,0.012783173471689224,0.009587380103766918,0.02130528911948204,-0.15073241293430328,-0.16688232123851776,9.83528995513916,0.02663161139935255,9.837860462067564,449,1
0.054447675007395446,229,38859,0.011717909015715122,-0.00532632227987051,-0.003195793367922306,-0.12022704631090164,-0.19020995497703552,9.81734561920166,0.013262435522183659,9.819924102379561,449,1
0.05949438805691898,230,38864,0.009587380103766918,-0.00532632227987051,0.009587380103766918,-0.11304931342601776,-0.17406006157398224,9.797607421875,0.014567272343759367,9.799805520798936,449,1
0.06436491501517594,231,38869,-0.017044231295585632,-0.003195793367922306,-0.02130528911948204,-0.13099364936351776,-0.21892090141773224,9.80657958984375,0.027470607204293767,9.80989749942328,449,1
0.06948837102390826,232,38874,-0.01065264455974102,-0.013848437927663326,-0.001065264455974102,-0.13996581733226776,-0.2332763671875,9.810168266296387,0.017504081167364537,9.813939560979492,449,1
0.0743716600118205,233,38879,0.006391586735844612,-0.014913702383637428,0.013848437927663326,-0.13458251953125,-0.21712645888328552,9.822729110717773,0.021331904106897764,9.826050251054742,449,1
0.07963981898501515,234,38884,0.017044231295585632,-0.01065264455974102,-0.011717909015715122,-0.179443359375,-0.18662108480930328,9.76351261138916,0.023265726901908274,9.766944550947056,449,1
0.08423548401333392,235,38889,-0.003195793367922306,-0.01065264455974102,-0.009587380103766918,-0.19020995497703552,-0.2619872987270355,9.76171875,0.01468365719501589,9.76708606114271,449,1
0.0894771380117163,236,38894,0.015978965908288956,-0.01810949668288231,0.023435818031430244,-0.15970458090305328,-0.17585448920726776,9.740185737609863,0.03365291649185694,9.743082087187522,449,1
0.09438399795908481,237,38899,0.008522115647792816,-0.006391586735844612,-0.007456851191818714,-0.11484374850988388,-0.18303222954273224,9.76171875,0.013003209827312182,9.764109935766022,449,1
0.09932051203213632,238,38904,-0.023435818031430244,-0.006391586735844612,-0.020240023732185364,-0.13278807699680328,-0.179443359375,9.75274658203125,0.03161879992162198,9.755301045377253,449,1
0.10467110201716423,239,38909,0.01065264455974102,-0.015978965908288956,0.002130528911948204,-0.14176024496555328,-0.17585448920726776,9.749157905578613,0.019322146388512013,9.751774230176425,449,1
0.10935842304024845,240,38914,-0.012783173471689224,-0.00532632227987051,-0.01065264455974102,-0.10587158054113388,-0.20994873344898224,9.774279594421387,0.017471636132672982,9.777107386756342,449,1
0.11446682002861053,241,38919,0.007456851191818714,0.014913702383637428,-0.009587380103766918,-0.16329345107078552,-0.24224853515625,9.82631778717041,0.019233850517739463,9.830659711250794,449,1
0.1195168710546568,242,38924,0.015978965908288956,-0.009587380103766918,-0.013848437927663326,-0.12740477919578552,-0.20456542074680328,9.804784774780273,0.02321689991770457,9.807746095249932,449,1
0.12429411895573139,243,38929,-0.012783173471689224,0.006391586735844612,-0.001065264455974102,-0.17226561903953552,-0.27275389432907104,9.801196098327637,0.014331667501386073,9.806503713773203,449,1
0.1296664479887113,244,38934,0.0,-0.00532632227987051,-0.006391586735844612,-0.19020995497703552,-0.20456542074680328,9.777868270874023,0.008319981372026608,9.781857428980585,449,1
0.134562244056724,245,38939,-0.001065264455974102,-0.017044231295585632,-0.013848437927663326,-0.13458251953125,-0.16329345107078552,9.811963081359863,0.021986810633989794,9.814244582019287,449,1
0.1394377170363441,246,38944,-0.002130528911948204,-0.012783173471689224,-0.002130528911948204,-0.15432128310203552,-0.24224853515625,9.82631778717041,0.013133462258543767,9.830514771143228,449,1
0.14441673294641078,247,38949,0.001065264455974102,-0.001065264455974102,0.012783173471689224,-0.1256103515625,-0.23686523735523224,9.765307426452637,0.012871639395571286,9.768987267583986,449,1
0.14940204296726733,248,38954,0.003195793367922306,-0.007456851191818714,0.019174760207533836,-0.18482665717601776,-0.20277099311351776,9.8514404296875,0.02082040234874935,9.855260296335787,449,1
0.15452918002847582,249,38959,0.008522115647792816,-0.006391586735844612,0.017044231295585632,-0.17406006157398224,-0.19559325277805328,9.8155517578125,0.020099369556620443,9.819043229147303,449,1
0.15946584101766348,250,38964,-0.006391586735844612,-0.008522115647792816,-0.003195793367922306,-0.16329345107078552,-0.20097656548023224,9.795812606811523,0.011121687433417474,9.799234712915208,449,1
0.16447799105662853,251,38969,0.015978965908288956,-0.002130528911948204,0.008522115647792816,-0.16508789360523224,-0.20815429091453552,9.820935249328613,0.018234389489567866,9.824528049374505,449,1
0.16945686598774046,252,38974,0.019174760207533836,0.009587380103766918,-0.002130528911948204,-0.13817138969898224,-0.19918212294578552,9.776074409484863,0.021543640354294256,9.779079491998075,449,1
0.17434318701270968,253,38979,0.017044231295585632,-0.004261057823896408,0.011717909015715122,-0.1256103515625,-0.19918212294578552,9.802990913391113,0.021118045031124147,9.805818799394041,449,1
0.17944791004993021,254,38984,-0.00532632227987051,-0.01065264455974102,-0.00532632227987051,-0.14176024496555328,-0.14893798530101776,9.774279594421387,0.013046771791300326,9.776442097227422,449,1
0.18432883196510375,255,38989,0.01810949668288231,-0.008522115647792816,0.007456851191818714,-0.13817138969898224,-0.20635986328125,9.783251762390137,0.02135848671883401,9.78640336244192,449,1
0.189409050042741,0,38994,-0.00532632227987051,-0.004261057823896408,-0.03515372797846794,-0.0897216796875,-0.22609862685203552,9.813756942749023,0.03580936907558905,9.816771154520461,449,1
0.19443369505461305,1,38999,0.006391586735844612,-0.007456851191818714,-0.003195793367922306,-0.06101074069738388,-0.13637694716453552,9.7437744140625,0.010328122092094437,9.744919743863331,449,1
0.1994731629965827,2,39004,-0.00532632227987051,0.00532632227987051,0.0,-0.11663818359375,-0.24763183295726776,9.7796630859375,0.0075325572057628595,9.783493040065721,449,1
0.20459593005944043,3,39009,0.019174760207533836,-0.0,0.004261057823896408,-0.14893798530101776,-0.22430419921875,9.765307426452637,0.01964250602125431,9.769018580716475,449,1
0.20940943795721978,4,39014,0.003195793367922306,-0.019174760207533836,-0.006391586735844612,-0.15970458090305328,-0.23148192465305328,9.831701278686523,0.02046306197197047,9.835722620526095,449,1
0.21429915796034038,5,39019,0.009587380103766918,-0.008522115647792816,0.015978965908288956,-0.15432128310203552,-0.19559325277805328,9.811963081359863,0.02049077021165192,9.815125637958971,449,1
0.2194017720175907,6,39024,0.00532632227987051,-0.003195793367922306,0.006391586735844612,-0.16508789360523224,-0.22968749701976776,9.810168266296387,0.008912641880010997,9.814245349080634,449,1
0.22444531903602183,7,39029,0.01065264455974102,-0.009587380103766918,-0.003195793367922306,-0.14893798530101776,-0.22071532905101776,9.76351261138916,0.01468365719501589,9.767142688253244,449,1
0.22948628501035273,8,39034,0.0,-0.008522115647792816,0.009587380103766918,-0.11304931342601776,-0.19020995497703552,9.81734561920166,0.01282748269803787,9.819838847002352,449,1
0.23433196602854878,9,39039,-0.011717909015715122,-0.012783173471689224,0.00532632227987051,-0.19918212294578552,-0.22609862685203552,9.856823921203613,0.01814080000267138,9.861428492910008,449,1
0.2393755440134555,10,39044,0.004261057823896408,-0.004261057823896408,0.013848437927663326,-0.1256103515625,-0.23507079482078552,9.795812606811523,0.015102730236401685,9.799437783197815,449,1
0.24426363594830036,11,39049,0.003195793367922306,-0.014913702383637428,0.027696875855326653,-0.07357177883386612,-0.18123778700828552,9.765307426452637,0.03161880051778602,9.767266202741249,449,1
0.24925381503999233,12,39054,-0.001065264455974102,0.006391586735844612,0.009587380103766918,-0.1256103515625,-0.19020995497703552,9.81734561920166,0.011571733950324486,9.819991486465254,449,1
0.25445107801351696,13,39059,0.012783173471689224,-0.02130528911948204,0.02130528911948204,-0.13278807699680328,-0.13817138969898224,9.776074409484863,0.03272980618544416,9.777952488435842,449,1
0.2595510520040989,14,39064,0.001065264455974102,0.001065264455974102,-0.002130528911948204,-0.12740477919578552,-0.28352048993110657,9.75454044342041,0.002609354358260065,9.759491539434682,449,1
0.26437676895875484,15,39069,0.004261057823896408,-0.012783173471689224,0.00532632227987051,-0.13458251953125,-0.12381591647863388,9.820935249328613,0.014489163081935855,9.8226377316504,449,1
0.269362302031368,16,39074,0.012783173471689224,-0.01065264455974102,0.008522115647792816,-0.1435546875,-0.21712645888328552,9.82452392578125,0.018695315328654778,9.82797141915353,449,1
0.27429666405078024,17,39079,-0.007456851191818714,0.007456851191818714,-0.012783173471689224,-0.13817138969898224,-0.20277099311351776,9.822729110717773,0.016571625852678292,9.82579333138663,449,1
0.27959139505401254,18,39084,-0.006391586735844612,-0.01065264455974102,-0.007456851191818714,-0.15970458090305328,-0.16867674887180328,9.756335258483887,0.014489163081935855,9.759100116030536,449,1
0.28452459594700485,19,39089,0.009587380103766918,0.006391586735844612,-0.002130528911948204,-0.15611572563648224,-0.14176024496555328,9.838879585266113,0.011717909015715122,9.84113914037445,449,1
0.28942785400431603,20,39094,-0.00532632227987051,-0.014913702383637428,0.004261057823896408,-0.14176024496555328,-0.18841552734375,9.792223930358887,0.016399537847004913,9.7950623214092,449,1
0.29452362295705825,21,39099,-0.001065264455974102,-0.004261057823896408,-0.01065264455974102,-0.16329345107078552,-0.179443359375,9.783251762390137,0.011522596853831628,9.786259740917165,449,1
0.2995272050611675,22,39104,0.01810949668288231,-0.001065264455974102,-0.002130528911948204,-0.15791015326976776,-0.12919922173023224,9.831701278686523,0.01826548143118966,9.833818082958805,449,1
0.3046078459592536,23,39109,0.007456851191818714,0.00532632227987051,0.01065264455974102,-0.1256103515625,-0.16329345107078552,9.78863525390625,0.014051803259445142,9.79080297246342,449,1
0.3095658819656819,24,39114,0.013848437927663326,-0.019174760207533836,0.00532632227987051,-0.13278807699680328,-0.22789306938648224,9.84426212310791,0.024245007137178,9.847794914239632,449,1
0.3145746140507981,25,39119,-0.023435818031430244,-0.001065264455974102,-0.01065264455974102,-0.10587158054113388,-0.20456542074680328,9.797607421875,0.02576530984249273,9.800314637607901,449,1
0.3195234730374068,26,39124,-0.002130528911948204,0.001065264455974102,0.006391586735844612,-0.12740477919578552,-0.15073241293430328,9.813756942749023,0.0068210206573234905,9.815741315327415,449,1
0.32447596499696374,27,39129,-0.003195793367922306,-0.0,0.006391586735844612,-0.16329345107078552,-0.32658690214157104,9.79940128326416,0.0071460112127172725,9.806201571773462,449,1
0.3294900640612468,28,39134,-0.002130528911948204,0.011717909015715122,-0.008522115647792816,-0.16508789360523224,-0.17764891684055328,9.777868270874023,0.014644965013941826,9.780875271305456,449,1
0.3345004180446267,29,39139,-0.007456851191818714,-0.007456851191818714,-0.03515372797846794,-0.13278807699680328,-0.21174316108226776,9.8155517578125,0.03670141482528945,9.818733327163626,449,1
0.3394658169709146,30,39144,-0.008522115647792816,0.00532632227987051,-0.01065264455974102,-0.10946045070886612,-0.21712645888328552,9.813756942749023,0.014644965013941826,9.816768858477378,449,1
0.3445816970197484,31,39149,0.004261057823896408,-0.003195793367922306,-0.006391586735844612,-0.09331054240465164,-0.20994873344898224,9.810168266296387,0.008319981372026608,9.812858235042905,449,1
0.3496088780229911,32,39154,-0.00532632227987051,-0.001065264455974102,-0.017044231295585632,-0.10946045070886612,-0.19200439751148224,9.792223930358887,0.017888832210282132,9.794717799979047,449,1
0.3546795570291579,33,39159,-0.002130528911948204,0.003195793367922306,-0.001065264455974102,-0.15970458090305328,-0.20456542074680328,9.87117862701416,0.003985854620563223,9.87458961430539,449,1
0.3596552179660648,34,39164,-0.012783173471689224,-0.008522115647792816,-0.02876213937997818,-0.1435546875,-0.18662108480930328,9.876562118530273,0.03260822964889302,9.879368130542856,449,1
0.36461493896786124,35,39169,-0.020240023732185364,0.003195793367922306,-0.02130528911948204,-0.1614990234375,-0.22250975668430328,9.82452392578125,0.029559888369116057,9.828370307158721,449,1
0.3696147600421682,36,39174,-0.01065264455974102,0.007456851191818714,-0.007456851191818714,-0.19200439751148224,-0.26019287109375,9.758130073547363,0.01498959957804198,9.763486495668504,449,1
0.37453023495618254,37,39179,-0.003195793367922306,0.002130528911948204,-0.019174760207533836,-0.14534911513328552,-0.21174316108226776,9.80837345123291,0.0195556559008264,9.811735386280336,449,1
0.3797480659559369,38,39184,-0.008522115647792816,0.001065264455974102,-0.008522115647792816,-0.0897216796875,-0.21174316108226776,9.77248477935791,0.012099078419031432,9.775190223665884,449,1
0.38448227697517723,39,39189,-0.00532632227987051,0.004261057823896408,0.0,-0.19200439751148224,-0.21712645888328552,9.78863525390625,0.0068210206573234905,9.792925493529868,449,1
0.3898264979943633,40,39194,-0.020240023732185364,0.003195793367922306,-0.00532632227987051,-0.20456542074680328,-0.7339233160018921,9.890917778015137,0.021171711431977526,9.920218996402873,449,0
0.3945210319943726,41,39199,0.0,0.007456851191818714,-0.017044231295585632,-0.2583984434604645,0.08254394680261612,9.76171875,0.018604043919383466,9.765486993122162,449,0
0.3995235620532185,42,39204,-0.012783173471689224,-0.00532632227987051,0.012783173471689224,-0.17764891684055328,-0.23865966498851776,9.8514404296875,0.01884645210758893,9.855932026603496,449,1
0.4046498950337991,43,39209,-0.012783173471689224,-0.01065264455974102,-0.002130528911948204,-0.0897216796875,-0.10228271037340164,9.80837345123291,0.016775801428489976,9.809317075693794,449,1
0.409495125990361,44,39214,0.003195793367922306,-0.020240023732185364,0.01065264455974102,-0.11125487834215164,-0.17047119140625,9.77248477935791,0.023094382261625076,9.774604689594174,449,1
0.41453373001422733,45,39219,-0.002130528911948204,-0.007456851191818714,0.012783173471689224,-0.19918212294578552,-0.22071532905101776,9.777868270874023,0.014951699139190653,9.782387065391772,449,1
0.4195285029709339,46,39224,-0.003195793367922306,-0.011717909015715122,0.014913702383637428,-0.15611572563648224,-0.21174316108226776,9.797607421875,0.019233850517739463,9.801138631773156,449,1
0.4245296949520707,47,39229,-0.019174760207533836,-0.006391586735844612,0.007456851191818714,-0.19020995497703552,-0.21712645888328552,9.828112602233887,0.021543640354294256,9.832350738674252,449,1
0.4296144370455295,48,39234,0.001065264455974102,-0.002130528911948204,0.0,-0.10048828274011612,-0.21353758871555328,9.80657958984375,0.002382003737572424,9.809418914935916,449,1
0.4345343050081283,49,39239,-0.011717909015715122,-0.011717909015715122,0.011717909015715122,-0.14534911513328552,-0.179443359375,9.786840438842773,0.020296013773688004,9.78956444689252,449,1
0.4395612810039893,50,39244,-0.003195793367922306,-0.006391586735844612,0.008522115647792816,-0.09869384765625,-0.20815429091453552,9.77248477935791,0.011121687433417474,9.775199611628059,449,1
0.4445099700242281,51,39249,-0.001065264455974102,-0.014913702383637428,0.004261057823896408,-0.17764891684055328,-0.13637694716453552,9.80657958984375,0.015547022895958676,9.809136611410432,449,1
0.44946782605256885,52,39254,-0.014913702383637428,0.019174760207533836,-0.015978965908288956,-0.18662108480930328,-0.179443359375,9.7796630859375,0.029076060587748066,9.78308935985805,449,1
0.4546439469559118,53,39259,0.002130528911948204,-0.002130528911948204,0.02556634694337845,-0.12381591647863388,-0.18662108480930328,9.776074409484863,0.025743278791142573,9.778639407926528,449,1
0.4595611239783466,54,39264,-0.019174760207533836,-0.009587380103766918,0.00532632227987051,-0.12740477919578552,-0.22968749701976776,9.82452392578125,0.022089793917091528,9.828034324945012,449,1
0.4645328080514446,55,39269,-0.008522115647792816,-0.004261057823896408,-0.011717909015715122,-0.13996581733226776,-0.17764891684055328,9.84426212310791,0.015102730236401685,9.846859718516008,449,1
0.4695536990184337,56,39274,-0.012783173471689224,-0.00532632227987051,-0.01065264455974102,-0.13817138969898224,-0.22430419921875,9.81734561920166,0.017471636132672982,9.820879732161297,449,1
0.4745172030525282,57,39279,-0.01065264455974102,-0.017044231295585632,0.014913702383637428,-0.1973876953125,-0.20815429091453552,9.802990913391113,0.025028047773674105,9.80718720934375,449,1
0.4797186170471832,58,39284,-0.001065264455974102,-0.00532632227987051,-0.01810949668288231,-0.14893798530101776,-0.14176024496555328,9.804784774780273,0.01890656942698839,9.806940550971097,449,1
0.48450124205555767,59,39289,-0.002130528911948204,0.00532632227987051,-0.008522115647792816,-0.14176024496555328,-0.17764891684055328,9.795812606811523,0.010273038381513395,9.798448843183031,449,1
0.4894306119531393,60,39294,0.01065264455974102,-0.001065264455974102,0.007456851191818714,-0.14534911513328552,-0.21353758871555328,9.785046577453613,0.013046771791300326,9.788455505849795,449,1
0.4944960620487109,61,39299,0.01065264455974102,-0.003195793367922306,-0.004261057823896408,-0.17585448920726776,-0.21353758871555328,9.785046577453613,0.011910018687862121,9.788956002869023,449,1
0.4995241949800402,62,39304,0.004261057823896408,-0.014913702383637428,-0.008522115647792816,-0.10048828274011612,-0.19379882514476776,9.81734561920166,0.017697502300625834,9.819772445757263,449,1
0.5047825740184635,63,39309,0.0,-0.009587380103766918,-0.024501081556081772,-0.09331054240465164,-0.17226561903953552,9.76171875,0.026310090358489385,9.763684512259113,449,1
0.5096095580374822,64,39314,-0.01065264455974102,-0.003195793367922306,-0.02876213937997818,-0.16688232123851776,-0.18123778700828552,9.87117862701416,0.030837519243284272,9.874252596070386,449,1
0.5144699229858816,65,39319,-0.008522115647792816,-0.002130528911948204,-0.014913702383637428,-0.19200439751148224,-0.17764891684055328,9.777868270874023,0.017308498702854475,9.781366609471466,449,1
0.5195679189637303,66,39324,-0.001065264455974102,-0.003195793367922306,-0.015978965908288956,-0.17047119140625,-0.17406006157398224,9.813756942749023,0.01633019397036908,9.816780666974752,449,1
0.5245916020357981,67,39329,0.002130528911948204,0.007456851191818714,0.026631612330675125,-0.21533203125,-0.17226561903953552,9.76351261138916,0.027737818199579843,9.767406095783082,449,1
0.5297184709925205,68,39334,0.013848437927663326,-0.004261057823896408,0.0,-0.07357177883386612,-0.21712645888328552,9.828112602233887,0.014489163081935855,9.830786033068593,449,1
0.5346495900303125,69,39339,0.002130528911948204,-0.003195793367922306,-0.017044231295585632,-0.13278807699680328,-0.21174316108226776,9.802990913391113,0.017471636132672982,9.806176558051886,449,1
0.5395942480536178,70,39344,-0.002130528911948204,0.008522115647792816,-0.004261057823896408,-0.12022704631090164,-0.17585448920726776,9.7437744140625,0.00976331000929455,9.746102768603356,449,1
0.5446004850091413,71,39349,0.015978965908288956,-0.001065264455974102,0.008522115647792816,-0.13278807699680328,-0.13099364936351776,9.856823921203613,0.018140799182334213,9.858588632414776,449,1
0.5495597090339288,72,39354,0.006391586735844612,0.006391586735844612,-0.020240023732185364,-0.13099364936351776,-0.22789306938648224,9.768896102905273,0.022166716551692455,9.77243192130832,449,1
0.5545829130569473,73,39359,-0.009587380103766918,-0.002130528911948204,0.017044231295585632,-0.15252685546875,-0.27813720703125,9.740185737609863,0.019671370850964445,9.74534981161338,449,1
0.55952452798374,74,39364,0.006391586735844612,-0.006391586735844612,0.004261057823896408,-0.12202148139476776,-0.19020995497703552,9.81734561920166,0.00999306638536132,9.819946235889082,449,1
0.5644815280102193,75,39369,0.0,-0.011717909015715122,-0.007456851191818714,-0.09869384765625,-0.251220703125,9.78145694732666,0.013889349207126514,9.785180240018516,449,1
0.5694373140577227,76,39374,0.02130528911948204,-0.013848437927663326,0.019174760207533836,-0.08074951171875,-0.23686523735523224,9.801196098327637,0.03183341022444009,9.804390372796417,449,1
0.5745538719929755,77,39379,0.004261057823896408,-0.015978965908288956,0.003195793367922306,-0.13996581733226776,-0.22789306938648224,9.740185737609863,0.016843309072961454,9.743856725354416,449,1
0.579567861976102,78,39384,0.007456851191818714,0.001065264455974102,0.006391586735844612,-0.18841552734375,-0.20815429091453552,9.856823921203613,0.009878856161515601,9.860821793003975,449,1
0.5845320109510794,79,39389,-0.008522115647792816,0.009587380103766918,-0.001065264455974102,-0.10587158054113388,-0.20994873344898224,9.820935249328613,0.012871639395571286,9.823749611718958,449,1
0.5896248100325465,80,39394,-0.01065264455974102,0.004261057823896408,-0.006391586735844612,-0.15073241293430328,-0.18662108480930328,9.82631778717041,0.013133462258543767,9.829245593842185,449,1
0.5945751370163634,81,39399,0.007456851191818714,-0.001065264455974102,0.007456851191818714,-0.14176024496555328,-0.17226561903953552,9.819140434265137,0.010599247508904496,9.821674514988587,449,1
0.5996040570316836,82,39404,0.009587380103766918,-0.001065264455974102,0.015978965908288956,-0.15791015326976776,-0.2332763671875,9.820935249328613,0.018664940319045444,9.824974435157536,449,1
0.6046044710092247,83,39409,-0.00532632227987051,-0.003195793367922306,0.006391586735844612,-0.15073241293430328,-0.19200439751148224,9.85323429107666,0.008912641880010997,9.85625750190313,449,1
0.6095654889941216,84,39414,0.015978965908288956,0.002130528911948204,0.003195793367922306,-0.14893798530101776,-0.18662108480930328,9.83528995513916,0.016434098703408232,9.83818776271434,449,1
0.6145598229486495,85,39419,0.006391586735844612,-0.002130528911948204,0.01065264455974102,-0.14893798530101776,-0.2799316346645355,9.792223930358887,0.012604379023285992,9.797356467223429,449,1
0.6194679629988968,86,39424,0.01065264455974102,0.003195793367922306,0.006391586735844612,-0.16329345107078552,-0.17764891684055328,9.759923934936523,0.01282748269803787,9.762906283713065,449,1
0.624578241026029,87,39429,0.01810949668288231,-0.003195793367922306,-0.003195793367922306,-0.12740477919578552,-0.21892090141773224,9.802990913391113,0.01866494201995382,9.806262753305573,449,1
0.6297068330459297,88,39434,-0.007456851191818714,0.002130528911948204,0.001065264455974102,-0.18662108480930328,-0.2332763671875,9.776074409484863,0.007828063074780196,9.780637819312625,449,1
0.6346314769471064,89,39439,0.006391586735844612,-0.009587380103766918,-0.014913702383637428,-0.20456542074680328,-0.19379882514476776,9.78863525390625,0.01884645210758893,9.7926903928394,449,1
0.6395713649690151,90,39444,0.012783173471689224,-0.003195793367922306,-0.003195793367922306,-0.10228271037340164,-0.22609862685203552,9.846056938171387,0.013558602970373148,9.84918370077534,449,1
0.644531004014425,91,39449,-0.003195793367922306,-0.0,-0.006391586735844612,-0.15432128310203552,-0.15791015326976776,9.765307426452637,0.0071460112127172725,9.767803223246,449,1
0.6494895310606807,92,39454,0.00532632227987051,-0.008522115647792816,-0.017044231295585632,-0.19020995497703552,-0.21174316108226776,9.83349609375,0.019786409088079143,9.837614569550587,449,1
0.654651933000423,93,39459,-0.00532632227987051,-0.01065264455974102,0.01065264455974102,-0.15252685546875,-0.17585448920726776,9.81734561920166,0.01597896683961153,9.820105103809814,449,1
0.6597581109963357,94,39464,0.003195793367922306,-0.0,0.006391586735844612,-0.11663818359375,-0.19020995497703552,9.8155517578125,0.0071460112127172725,9.818087420834084,449,1
0.66464809095487,95,39469,0.009587380103766918,0.004261057823896408,0.012783173471689224,-0.14893798530101776,-0.20635986328125,9.77069091796875,0.016537351512258356,9.774004702838852,449,1
0.6696534639922902,96,39474,-0.002130528911948204,0.015978965908288956,-0.008522115647792816,-0.20097656548023224,-0.15791015326976776,9.73480224609375,0.018234389489567866,9.738157010796746,449,1
0.674503350048326,97,39479,0.00532632227987051,-0.020240023732185364,-0.008522115647792816,-0.21892090141773224,-0.179443359375,9.83349609375,0.022597670783132205,9.83756940031926,449,1
0.679581435979344,98,39484,0.008522115647792816,0.006391586735844612,0.00532632227987051,-0.179443359375,-0.19918212294578552,9.767102241516113,0.011910018687862121,9.77078091216634,449,1
0.6846170939970762,99,39489,0.007456851191818714,0.00532632227987051,-0.027696875855326653,-0.12381591647863388,-0.16329345107078552,9.865796089172363,0.02917346861227423,9.867924179150585,449,1
0.6898351090494543,100,39494,0.007456851191818714,-0.006391586735844612,0.002130528911948204,-0.19200439751148224,-0.22430419921875,9.8155517578125,0.010049684778310222,9.819991566836856,449,1
0.6945635209558532,101,39499,-0.011717909015715122,-0.002130528911948204,0.00532632227987051,-0.15073241293430328,-0.1614990234375,9.715063095092773,0.013046771791300326,9.717574447181448,449,1
0.699602780980058,102,39504,0.006391586735844612,-0.004261057823896408,0.015978965908288956,-0.15073241293430328,-0.24404296278953552,9.79940128326416,0.017729533165841516,9.803598458649526,449,1
0.7045604049926624,103,39509,0.0,-0.002130528911948204,0.004261057823896408,-0.15970458090305328,-0.20815429091453552,9.846056938171387,0.004764007475144848,9.849551816793516,449,1
0.7096014480339363,104,39514,0.009587380103766918,-0.01065264455974102,0.03195793181657791,-0.05203857272863388,-0.21174316108226776,9.84426212310791,0.03502436436772734,9.846676593032484,449,1
0.7143752509728074,105,39519,-0.015978965908288956,0.00532632227987051,-0.001065264455974102,-0.16867674887180328,-0.18841552734375,9.864001274108887,0.016876962075221578,9.867242441137034,449,1
0.7195291060488671,106,39524,0.004261057823896408,-0.014913702383637428,0.01810949668288231,-0.14893798530101776,-0.19200439751148224,9.765307426452637,0.023843846222319647,9.768330325355521,449,1
0.7244821640197188,107,39529,0.012783173471689224,-0.004261057823896408,0.02130528911948204,-0.16508789360523224,-0.18123778700828552,9.78863525390625,0.025208758046571984,9.791704717875787,449,1
0.7294809040613472,108,39534,0.006391586735844612,-0.003195793367922306,-0.002130528911948204,-0.12381591647863388,-0.18482665717601776,9.731213569641113,0.007456851191818714,9.733756151267796,449,1
0.7345312830293551,109,39539,-0.00532632227987051,-0.008522115647792816,-0.012783173471689224,-0.15432128310203552,-0.21533203125,9.74556827545166,0.01626055620668307,9.749168372409533,449,1
0.7395937290275469,110,39544,0.00532632227987051,-0.023435818031430244,0.003195793367922306,-0.13817138969898224,-0.19559325277805328,9.81734561920166,0.024245007137178,9.820265936333989,449,1
0.7444566199555993,111,39549,-0.004261057823896408,-0.01065264455974102,0.017044231295585632,0.0538330078125,-0.3068481385707855,9.864001274108887,0.02054607676302679,9.868919642417616,449,0
0.7493950639618561,112,39554,-0.003195793367922306,-0.001065264455974102,0.008522115647792816,-0.35888671875,-0.19559325277805328,9.72762393951416,0.009163751345708435,9.736206854110918,449,0
0.7546906840289012,113,39559,0.003195793367922306,0.004261057823896408,0.02130528911948204,-0.3158203065395355,-0.2942871153354645,9.83349609375,0.021960989355986782,9.842966666512272,449,0
0.7596200159750879,114,39564,-0.001065264455974102,-0.007456851191818714,-0.002130528911948204,-0.11484374850988388,-0.12022704631090164,9.858617782592773,0.007828063074780196,9.860019686212137,449,1
0.7645802949555218,115,39569,0.011717909015715122,-0.006391586735844612,0.027696875855326653,-0.15432128310203552,-0.15073241293430328,9.838879585266113,0.030745385098381497,9.841244169925545,449,1
0.7695792299928144,116,39574,0.02556634694337845,-0.009587380103766918,0.01810949668288231,-0.08254394680261612,-0.3337646424770355,9.733007431030273,0.03276445976039629,9.739078292744756,449,0
0.774468112969771,117,39579,0.00532632227987051,-0.007456851191818714,0.030892670154571533,-0.13817138969898224,0.10228271037340164,9.765307426452637,0.03222315018748365,9.766820476434678,449,0
0.7798706169705838,118,39584,0.012783173471689224,-0.011717909015715122,0.002130528911948204,-0.14893798530101776,-0.01076660118997097,9.87835693359375,0.017471636132672982,9.879485520544398,449,0
0.7846245759865269,119,39589,-0.009587380103766918,0.002130528911948204,0.0,-0.17764891684055328,-0.2691650390625,9.76351261138916,0.009821253010627156,9.76883756998054,449,1
0.7894968610489741,120,39594,-0.008522115647792816,0.014913702383637428,-0.012783173471689224,-0.1256103515625,-0.34632566571235657,9.702502250671387,0.02141155057228147,9.709493774210584,449,0
0.7946077999658883,121,39599,0.002130528911948204,-0.017044231295585632,-0.008522115647792816,-0.11843261867761612,-0.3158203065395355,9.783251762390137,0.019174760207533836,9.789064500630246,449,1
0.7994130599545315,122,39604,0.001065264455974102,0.013848437927663326,-0.001065264455974102,-0.21712645888328552,-0.20815429091453552,9.908862113952637,0.01393014033521083,9.913426274568206,449,1
0.8047142450232059,123,39609,0.003195793367922306,-0.019174760207533836,0.01065264455974102,-0.09689941257238388,-0.21533203125,9.69173526763916,0.02216671740206608,9.694611383538787,449,1
0.8096396590117365,124,39614,-0.002130528911948204,-0.01065264455974102,0.015978965908288956,-0.04306640475988388,-0.32658690214157104,9.794018745422363,0.019322146388512013,9.799556974963409,449,0
0.8145856159972027,125,39619,0.004261057823896408,-0.01810949668288231,0.014913702383637428,-0.10946045070886612,-0.15970458090305328,9.846056938171387,0.023843846222319647,9.847960416915967,449,1
0.8195708979619667,126,39624,0.00532632227987051,0.009587380103766918,0.004261057823896408,-0.1614990234375,-0.17764891684055328,9.774279594421387,0.011766230495011541,9.777227759551693,449,1
0.824613802949898,127,39629,0.007456851191818714,0.00532632227987051,0.007456851191818714,-0.20635986328125,-0.09689941257238388,9.70070743560791,0.011814354337961146,9.703385936908257,449,0
0.8296393139753491,128,39634,0.019174760207533836,-0.020240023732185364,0.013848437927663326,-0.09331054240465164,-0.06280517578125,9.794018745422363,0.031130519152950113,9.794664595233131,449,1
0.8345856129890308,129,39639,0.013848437927663326,-0.007456851191818714,0.01065264455974102,-0.06280517578125,-0.29069823026657104,9.87117862701416,0.01899638646820632,9.875657823031649,449,0
0.8395770590286702,130,39644,-0.003195793367922306,-0.004261057823896408,0.012783173471689224,-0.13996581733226776,-0.21353758871555328,9.731213569641113,0.013848437927663326,9.734562459082754,449,1
0.8444910430116579,131,39649,-0.011717909015715122,-0.009587380103766918,0.009587380103766918,-0.08254394680261612,-0.21533203125,9.75454044342041,0.017920521929028443,9.757266043782984,449,1
0.84960035700351,132,39654,0.017044231295585632,0.001065264455974102,-0.007456851191818714,-0.11484374850988388,-0.17406006157398224,9.892712593078613,0.018634517394220614,9.89491022904519,449,1
0.8545243929838762,133,39659,0.013848437927663326,-0.002130528911948204,0.014913702383637428,-0.11484374850988388,-0.11484374850988388,9.856823921203613,0.02046306197197047,9.858161896964129,449,1
0.8594786829780787,134,39664,-0.013848437927663326,-0.003195793367922306,0.014913702383637428,-0.09510497748851776,-0.22789306938648224,9.747363090515137,0.020601234115327,9.750490624894436,449,1
0.8646130179986358,135,39669,0.008522115647792816,-0.004261057823896408,0.00532632227987051,-0.10228271037340164,-0.12740477919578552,9.74556827545166,0.010915712433093359,9.746937710998932,449,1
0.8695934839779511,136,39674,-0.004261057823896408,-0.006391586735844612,-0.006391586735844612,-0.16867674887180328,-0.20635986328125,9.84246826171875,0.00999306638536132,9.846076260202555,449,1
0.8745991110336035,137,39679,0.007456851191818714,-0.009587380103766918,0.00532632227987051,-0.13099364936351776,-0.23865966498851776,9.80657958984375,0.013262435522183659,9.810357843820276,449,1
0.8796667730202898,138,39684,0.001065264455974102,-0.01810949668288231,-0.001065264455974102,-0.19559325277805328,-0.17226561903953552,9.819140434265137,0.018172051255421026,9.822598995777843,449,1
0.8846192529890686,139,39689,0.006391586735844612,-0.004261057823896408,-0.006391586735844612,-0.21174316108226776,-0.24583740532398224,9.7437744140625,0.00999306638536132,9.749174889612995,449,1
0.88973368704319,140,39694,0.003195793367922306,0.001065264455974102,0.01065264455974102,-0.14176024496555328,-0.21892090141773224,9.831701278686523,0.011172587870668011,9.835160006906673,449,1
0.8946846820181236,141,39699,0.001065264455974102,-0.024501081556081772,0.019174760207533836,-0.18482665717601776,-0.14534911513328552,9.783251762390137,0.031130519025473303,9.786076961928238,449,1
0.8997045080177486,142,39704,-0.01810949668288231,-0.003195793367922306,0.0,-0.21353758871555328,-0.24404296278953552,9.724035263061523,0.01838931660931916,9.729440737614137,449,1
0.9047688279533759,143,39709,-0.002130528911948204,-0.006391586735844612,0.012783173471689224,-0.13278807699680328,-0.179443359375,9.740185737609863,0.014449950119421559,9.742743494301536,449,1
0.909670221968554,144,39714,0.004261057823896408,-0.01065264455974102,0.004261057823896408,-0.09331054240465164,-0.14893798530101776,9.838879585266113,0.012238956804946962,9.840449221156302,449,1
0.9146801639581099,145,39719,-0.006391586735844612,-0.012783173471689224,-0.002130528911948204,-0.18123778700828552,-0.23148192465305328,9.768896102905273,0.014449950119421559,9.773318887984704,449,1
0.9196909520542249,146,39724,0.017044231295585632,-0.014913702383637428,-0.004261057823896408,-0.08074951171875,-0.17226561903953552,9.792223930358887,0.023045193707663256,9.79407195345425,449,1
0.9246822169516236,147,39729,0.0,-0.00532632227987051,0.001065264455974102,-0.15073241293430328,-0.1973876953125,9.7437744140625,0.005431804248148748,9.746939109007956,449,1
0.929776679025963,148,39734,-0.012783173471689224,-0.006391586735844612,0.020240023732185364,-0.20815429091453552,-0.1614990234375,9.810168266296387,0.024777418462958375,9.813705291909171,449,1
0.9347396170487627,149,39739,-0.006391586735844612,-0.006391586735844612,0.0,-0.17226561903953552,-0.17226561903953552,9.759923934936523,0.009039068646915432,9.76296400191832,449,1
0.9396818210370839,150,39744,-0.01810949668288231,-0.012783173471689224,0.004261057823896408,-0.06998290866613388,-0.14893798530101776,9.765307426452637,0.02257254987574982,9.766693875826247,449,1
0.9447025150293484,151,39749,0.011717909015715122,-0.001065264455974102,0.002130528911948204,-0.13996581733226776,-0.14714355766773224,9.802990913391113,0.011957563861689668,9.805094211919299,449,1
0.9496661350131035,152,39754,0.001065264455974102,-0.00532632227987051,-0.020240023732185364,-0.12202148139476776,-0.20635986328125,9.82452392578125,0.020956217647028614,9.827448499144804,449,1
0.9547566040419042,153,39759,0.019174760207533836,-0.007456851191818714,-0.01065264455974102,-0.17047119140625,-0.19918212294578552,9.79940128326416,0.023167971314500786,9.80290770412738,449,1
0.9597208730410784,154,39764,0.006391586735844612,-0.014913702383637428,0.023435818031430244,-0.179443359375,-0.1435546875,9.797607421875,0.028504534140937097,9.800301988240316,449,1
0.9646784149808809,155,39769,0.003195793367922306,-0.014913702383637428,-0.011717909015715122,-0.11125487834215164,-0.21533203125,9.7796630859375,0.019233850517739463,9.782666078635504,449,1
0.9696882090065628,156,39774,0.00532632227987051,0.009587380103766918,-0.001065264455974102,-0.19559325277805328,-0.13817138969898224,9.83349609375,0.011019181214786903,9.83641161599392,449,1
0.9746545050293207,157,39779,0.003195793367922306,0.004261057823896408,-0.01065264455974102,-0.2583984434604645,-0.179443359375,9.758130073547363,0.011910018687862121,9.763199895888441,449,1
0.9797526580514386,158,39784,0.006391586735844612,-0.009587380103766918,-0.014913702383637428,-0.11484374850988388,-0.3050537109375,9.846056938171387,0.01884645210758893,9.851450861819362,449,1
0.9846737149637192,159,39789,-0.003195793367922306,0.02130528911948204,0.015978965908288956,-0.179443359375,-0.21353758871555328,9.813756942749023,0.026822673081060296,9.817719875427946,449,1
0.9896210220176727,160,39794,0.00532632227987051,0.003195793367922306,-0.00532632227987051,-0.17406006157398224,-0.19918212294578552,9.856823921203613,0.00818245154636104,9.860372621597426,449,1
0.9944771920563653,161,39799,0.009587380103766918,0.003195793367922306,0.015978965908288956,-0.12022704631090164,-0.21353758871555328,9.76171875,0.018906567747817758,9.764794201546732,449,1
0.9995139690581709,162,39804,0.009587380103766918,-0.012783173471689224,0.020240023732185364,-0.1614990234375,-0.16867674887180328,9.78863525390625,0.025787321340938682,9.791420423727985,449,1
1.004890165058896,163,39809,-0.004261057823896408,-0.012783173471689224,0.004261057823896408,-0.1614990234375,-0.21353758871555328,9.804784774780273,0.014132330011872661,9.80843946385605,449,1
1.0096704630414024,164,39814,0.003195793367922306,0.001065264455974102,-0.00532632227987051,-0.06280517578125,-0.13099364936351776,9.828112602233887,0.006302189511642996,9.829186189531004,449,1
1.0146449720486999,165,39819,-0.004261057823896408,0.015978965908288956,0.012783173471689224,-0.12381591647863388,-0.251220703125,9.725830078125,0.020901997255864058,9.729861917386753,449,1
1.019594095996581,166,39824,-0.001065264455974102,0.002130528911948204,0.008522115647792816,-0.16867674887180328,-0.28172606229782104,9.802990913391113,0.008848751150312917,9.808488786139103,449,1
1.024649310973473,167,39829,-0.01065264455974102,-0.003195793367922306,-0.006391586735844612,-0.19559325277805328,-0.01076660118997097,9.7078857421875,0.01282748269803787,9.70986190548562,449,0
1.0297605380183086,168,39834,-0.012783173471689224,0.012783173471689224,0.00532632227987051,-0.1435546875,-0.22250975668430328,9.813756942749023,0.01884645210758893,9.81732875437497,449,1
1.0346891189692542,169,39839,0.011717909015715122,0.00532632227987051,-0.011717909015715122,-0.10407714545726776,-0.19020995497703552,9.93218994140625,0.01740656463608487,9.934556301685062,449,0
1.0396414890419692,170,39844,0.002130528911948204,-0.020240023732185364,-0.001065264455974102,-0.14714355766773224,-0.21712645888328552,9.7796630859375,0.020379708105987087,9.783179708058055,449,1
1.044668914983049,171,39849,-0.01065264455974102,-0.011717909015715122,-0.007456851191818714,-0.17406006157398224,-0.17047119140625,9.72762393951416,0.017504081167364537,9.730674428874064,449,1
1.049409397994168,172,39854,-0.012783173471689224,-0.019174760207533836,-0.007456851191818714,-0.17764891684055328,-0.20815429091453552,9.883740425109863,0.024221593315070136,9.887528110576053,449,1
1.0544820619979873,173,39859,0.008522115647792816,-0.00532632227987051,-0.011717909015715122,-0.15073241293430328,-0.23686523735523224,9.901684761047363,0.015437148565845245,9.905664364803298,449,1
1.059598507010378,174,39864,0.002130528911948204,-0.007456851191818714,-0.003195793367922306,-0.21174316108226776,-0.15791015326976776,9.756335258483887,0.008387900714244988,9.759910268988472,449,1
1.0645306640071794,175,39869,0.002130528911948204,0.007456851191818714,-0.023435818031430244,-0.17406006157398224,-0.15432128310203552,9.711474418640137,0.024685650689092366,9.714259999987398,449,1
1.06965791399125,176,39874,-0.009587380103766918,-0.001065264455974102,0.001065264455974102,-0.15611572563648224,-0.27813720703125,9.86041259765625,0.009705021070375342,9.86556987820492,449,1
1.074524978059344,177,39879,-0.017044231295585632,-0.0,0.013848437927663326,-0.16329345107078552,-0.24045409262180328,9.855029106140137,0.021960989355986782,9.859314459164514,449,1
1.0797654590569437,178,39884,-0.012783173471689224,0.004261057823896408,-0.013848437927663326,-0.17585448920726776,-0.22250975668430328,9.71685791015625,0.01932214715869414,9.720995990090735,449,1
1.0846787600312382,179,39889,-0.008522115647792816,-0.006391586735844612,-0.009587380103766918,-0.14534911513328552,-0.19559325277805328,9.677380561828613,0.014331667501386073,9.680448214016778,449,1
1.0896386969834566,180,39894,0.002130528911948204,0.004261057823896408,-0.009587380103766918,-0.20456542074680328,-0.12381591647863388,9.849645614624023,0.010705775286140735,9.852547697231463,449,1
1.0947449679952115,181,39899,0.002130528911948204,-0.008522115647792816,0.012783173471689224,-0.15252685546875,-0.20456542074680328,9.80657958984375,0.015510484601272183,9.80989881216644,449,1
1.0995123130269349,182,39904,-0.00532632227987051,-0.001065264455974102,-0.01810949668288231,-0.13278807699680328,-0.22968749701976776,9.811963081359863,0.01890656942698839,9.815549323886497,449,1
1.1048392270458862,183,39909,-0.002130528911948204,-0.01810949668288231,0.003195793367922306,-0.14176024496555328,-0.13817138969898224,9.83528995513916,0.018512323430688777,9.837281931592958,449,1
1.1093870890326798,184,39914,-0.009587380103766918,0.006391586735844612,-0.023435818031430244,-0.17226561903953552,-0.19020995497703552,9.79042911529541,0.026115279149536992,9.793791785212687,449,1
1.1145844400161877,185,39919,-0.014913702383637428,-0.001065264455974102,-0.003195793367922306,-0.13817138969898224,-0.19559325277805328,9.797607421875,0.01528942125782826,9.800533620504739,449,1
1.1194727000547573,186,39924,-0.01065264455974102,-0.003195793367922306,-0.003195793367922306,-0.19379882514476776,-0.17764891684055328,9.741979598999023,0.011571733950324486,9.745526339279746,449,1
1.1243929519550875,187,39929,-0.008522115647792816,-0.006391586735844612,-0.003195793367922306,-0.16329345107078552,-0.18303222954273224,9.76171875,0.011121687433417474,9.76479997246823,449,1
1.1297835069708526,188,39934,0.004261057823896408,0.002130528911948204,0.003195793367922306,-0.1435546875,-0.13458251953125,9.829907417297363,0.005736624658603018,9.831876740251799,449,1
1.1346717110136524,189,39939,-0.003195793367922306,0.001065264455974102,-0.003195793367922306,-0.1614990234375,-0.06818847358226776,9.828112602233887,0.004643380111736943,9.829675931824472,449,1
1.1395891020074487,190,39944,0.008522115647792816,-0.0,0.006391586735844612,-0.13458251953125,-0.11663818359375,9.876562118530273,0.01065264455974102,9.878167654055211,449,1
1.1446466790512204,191,39949,-0.00532632227987051,0.011717909015715122,0.00532632227987051,-0.13817138969898224,-0.16688232123851776,9.80657958984375,0.01393014033521083,9.808972642127886,449,1
1.1496020969934762,192,39954,-0.006391586735844612,-0.01810949668288231,0.009587380103766918,-0.179443359375,-0.17047119140625,9.811963081359863,0.0214644848147645,9.81508430204714,449,1
1.1546240750467405,193,39959,-0.00532632227987051,-0.011717909015715122,-0.014913702383637428,-0.13996581733226776,-0.2889038026332855,9.77248477935791,0.01970019338781565,9.777756112727474,449,1
1.1596956059802324,194,39964,0.006391586735844612,-0.012783173471689224,-0.014913702383637428,-0.19918212294578552,-0.14176024496555328,9.78145694732666,0.020656244184188873,9.784511714825573,449,1
1.1645679250359535,195,39969,-0.006391586735844612,-0.009587380103766918,-0.013848437927663326,-0.14534911513328552,-0.21533203125,9.81734561920166,0.018015256625767914,9.82078251748863,449,1
1.1696066709700972,196,39974,-0.002130528911948204,0.002130528911948204,-0.008522115647792816,-0.10587158054113388,-0.21353758871555328,9.822729110717773,0.009039068646915432,9.825620299803118,449,1
1.1745856989873573,197,39979,0.002130528911948204,-0.008522115647792816,0.006391586735844612,-0.16688232123851776,-0.19200439751148224,9.76351261138916,0.010863608496297496,9.766826194345883,449,1
1.1797180509893224,198,39984,0.011717909015715122,-0.007456851191818714,-0.003195793367922306,-0.13996581733226776,-0.20277099311351776,9.846056938171387,0.014252267070468548,9.849139238298067,449,1
1.1844490959774703,199,39989,-0.023435818031430244,0.002130528911948204,0.003195793367922306,-0.10228271037340164,-0.19918212294578552,9.792223930358887,0.023748469750647396,9.794783549075282,449,1
1.1896747420541942,200,39994,0.007456851191818714,0.001065264455974102,0.01065264455974102,-0.07536620646715164,-0.251220703125,9.78145694732666,0.013046771791300326,9.784972760266676,449,1
1.194580922019668,201,39999,0.0,-0.003195793367922306,0.00532632227987051,-0.179443359375,-0.2619872987270355,9.795812606811523,0.006211505798073539,9.800958212934368,449,1
1.1994723200332373,202,40004,0.007456851191818714,0.003195793367922306,-0.001065264455974102,-0.08074951171875,-0.20994873344898224,9.776074409484863,0.00818245154636104,9.778661964405174,449,1
1.2045778370229527,203,40009,0.006391586735844612,0.001065264455974102,-0.002130528911948204,-0.19379882514476776,-0.12740477919578552,9.82631778717041,0.0068210206573234905,9.82905444164651,449,1
1.2095168300438672,204,40014,0.01810949668288231,-0.00532632227987051,-0.014913702383637428,-0.17047119140625,-0.22250975668430328,9.810168266296387,0.024057059211883797,9.814172019684994,449,1
1.2146042230306193,205,40019,-0.002130528911948204,-0.002130528911948204,0.001065264455974102,-0.1435546875,-0.22430419921875,9.765307426452637,0.003195793367922306,9.768937990141067,449,1
1.219641212024726,206,40024,0.02876213937997818,0.006391586735844612,0.006391586735844612,-0.15252685546875,-0.15432128310203552,9.794018745422363,0.030149053446450705,9.79642193281517,449,1
1.2245035129599273,207,40029,0.01065264455974102,-0.007456851191818714,0.02130528911948204,-0.21712645888328552,-0.20635986328125,9.72762393951416,0.024959944116079828,9.73223488212906,449,1
1.2296042420202866,208,40034,0.006391586735844612,-0.011717909015715122,-0.003195793367922306,-0.18662108480930328,-0.13996581733226776,9.86041259765625,0.01372497242084146,9.863171622522593,449,1
1.2346460570115596,209,40039,-0.008522115647792816,-0.006391586735844612,-0.001065264455974102,-0.17764891684055328,-0.16329345107078552,9.776074409484863,0.010705775286140735,9.779051832800665,449,1
1.2396470409585163,210,40044,0.002130528911948204,-0.020240023732185364,-0.014913702383637428,-0.15252685546875,-0.1435546875,9.8155517578125,0.02523125507999526,9.817786344193811,449,1
1.2446152030024678,211,40049,-0.00532632227987051,-0.003195793367922306,0.011717909015715122,-0.12381591647863388,-0.22250975668430328,9.83349609375,0.013262435522183659,9.836792485296701,449,1
1.2495129100279883,212,40054,-0.01065264455974102,-0.001065264455974102,0.004261057823896408,-0.15791015326976776,-0.24942626059055328,9.792223930358887,0.011522596853831628,9.796672832052273,449,1
1.2546059140004218,213,40059,0.0,0.002130528911948204,-0.003195793367922306,-0.14714355766773224,-0.11125487834215164,9.86041259765625,0.0038408656179438764,9.862137976652736,449,1
1.2596297529526055,214,40064,-0.011717909015715122,-0.007456851191818714,0.011717909015715122,-0.13458251953125,-0.19379882514476776,9.750951766967773,0.01817205032730439,9.753805964900206,449,1
1.2646403149701655,215,40069,0.006391586735844612,-0.015978965908288956,-0.004261057823896408,-0.14893798530101776,-0.2691650390625,9.76171875,0.017729533165841516,9.76656466193823,449,1
1.2696228580316529,216,40074,-0.001065264455974102,-0.007456851191818714,0.02556634694337845,-0.11484374850988388,-0.15432128310203552,9.802990913391113,0.026652908173167268,9.804878122292944,449,1
1.2746352100512013,217,40079,0.020240023732185364,0.004261057823896408,0.002130528911948204,-0.12022704631090164,-0.22071532905101776,9.77069091796875,0.020793131748312054,9.773923000188807,449,1
1.2796439500525594,218,40084,-0.009587380103766918,0.002130528911948204,0.002130528911948204,-0.13278807699680328,-0.18662108480930328,9.869384765625,0.010049684778310222,9.872042126867102,449,1
1.2845701549667865,219,40089,-0.004261057823896408,-0.00532632227987051,-0.008522115647792816,-0.1435546875,-0.25660398602485657,9.822729110717773,0.010915712433093359,9.82712881448541,449,1
1.2896334789693356,220,40094,0.002130528911948204,-0.01065264455974102,-0.003195793367922306,-0.08254394680261612,-0.20994873344898224,9.725830078125,0.011323916496128154,9.728446056919447,449,1
1.2946996690006927,221,40099,-0.007456851191818714,0.001065264455974102,0.015978965908288956,-0.14893798530101776,-0.15970458090305328,9.776074409484863,0.017665411672427866,9.77851312503142,449,1
1.299578465986997,222,40104,-0.008522115647792816,0.00532632227987051,0.011717909015715122,-0.12740477919578552,-0.16867674887180328,9.759923934936523,0.015437148565845245,9.762212814680835,449,1
1.304641586029902,223,40109,0.0,0.006391586735844612,-0.01810949668288231,-0.17226561903953552,-0.19559325277805328,9.79042911529541,0.01920432896794757,9.793897815765664,449,1
1.3096933270571753,224,40114,-0.007456851191818714,-0.015978965908288956,0.011717909015715122,-0.15970458090305328,-0.13996581733226776,9.79042911529541,0.021171711619417232,9.79273190916646,449,1
1.3146715400507674,225,40119,-0.020240023732185364,0.004261057823896408,0.0,-0.14534911513328552,-0.13996581733226776,9.820935249328613,0.02068369344333878,9.823007989755316,449,1
1.3196642820257694,226,40124,0.002130528911948204,-0.0,-0.011717909015715122,-0.19379882514476776,-0.17226561903953552,9.76171875,0.011910018687862121,9.765161871788512,449,1
1.3246533690253273,227,40129,-0.004261057823896408,-0.01065264455974102,0.00532632227987051,-0.09869384765625,-0.19200439751148224,9.777868270874023,0.01264931456339883,9.780251228204412,449,1
1.329648987040855,228,40134,-0.009587380103766918,-0.003195793367922306,-0.001065264455974102,-0.10946045070886612,-0.21533203125,9.82452392578125,0.010161975244297919,9.827493059890699,449,1
1.334703900036402,229,40139,-0.001065264455974102,0.001065264455974102,-0.001065264455974102,-0.12022704631090164,-0.15073241293430328,9.794018745422363,0.0018450921612443642,9.795916393511037,449,1
1.339679460041225,230,40144,0.007456851191818714,0.003195793367922306,-0.004261057823896408,-0.06639403849840164,-0.2583984434604645,9.846056938171387,0.009163751345708435,9.849670814481254,449,1
1.344574165996164,231,40149,-0.00532632227987051,-0.01065264455974102,0.0,-0.11843261867761612,-0.20456542074680328,9.785046577453613,0.011910018687862121,9.787901195837074,449,1
1.3496297820238397,232,40154,-0.006391586735844612,-0.009587380103766918,0.008522115647792816,-0.08792724460363388,-0.3158203065395355,9.767102241516113,0.014331667501386073,9.772602512258207,449,1
1.3546556070214137,233,40159,-0.002130528911948204,0.011717909015715122,0.017044231295585632,-0.11663818359375,-0.24224853515625,9.783251762390137,0.02079313265486097,9.78694558404036,449,1
1.359673444996588,234,40164,0.012783173471689224,-0.014913702383637428,0.023435818031430244,-0.19200439751148224,-0.20994873344898224,9.794018745422363,0.03057884251565652,9.798150200166623,449,1
1.3646110700210556,235,40169,-0.007456851191818714,-0.006391586735844612,-0.006391586735844612,-0.19020995497703552,-0.18662108480930328,9.756335258483887,0.011717909015715122,9.759973613294434,449,1
1.3696425009984523,236,40174,-0.013848437927663326,-0.014913702383637428,0.020240023732185364,-0.14893798530101776,-0.22250975668430328,9.747363090515137,0.028702897284132896,9.751039961646246,449,1
1.374637495027855,237,40179,0.003195793367922306,-0.013848437927663326,0.01065264455974102,-0.17585448920726776,-0.13637694716453552,9.733007431030273,0.017761507942823444,9.7355511978307,449,1
1.3796729570021853,238,40184,-0.004261057823896408,-0.004261057823896408,0.015978965908288956,-0.10407714545726776,-0.17585448920726776,9.828112602233887,0.017077487492469092,9.830236730403263,449,1
1.3847178079886362,239,40189,-0.001065264455974102,-0.007456851191818714,-0.017044231295585632,-0.11843261867761612,-0.19020995497703552,9.797607421875,0.018634517394220614,9.800169248809905,449,1
1.3895643330179155,240,40194,-0.015978965908288956,-0.008522115647792816,0.008522115647792816,-0.12202148139476776,-0.18662108480930328,9.8155517578125,0.02001450128599189,9.81808397710639,449,1
1.394698819029145,241,40199,0.01065264455974102,-0.013848437927663326,0.012783173471689224,-0.15970458090305328,-0.13817138969898224,9.828112602233887,0.021648731906507207,9.830381183264528,449,1
1.3996488660341129,242,40204,-0.004261057823896408,-0.009587380103766918,-0.015978965908288956,-0.16508789360523224,-0.19020995497703552,9.76351261138916,0.0191154864581301,9.766760586414646,449,1
1.4046767910476774,243,40209,0.002130528911948204,-0.006391586735844612,0.011717909015715122,-0.18123778700828552,-0.15252685546875,9.758130073547363,0.013516690650712168,9.761004769456283,449,1
1.4096469630021602,244,40214,-0.013848437927663326,-0.0,0.001065264455974102,-0.07716064155101776,-0.29967039823532104,9.794018745422363,0.013889349207126514,9.798906025565698,449,1
1.414669548976235,245,40219,-0.004261057823896408,-0.006391586735844612,-0.003195793367922306,-0.15611572563648224,-0.21712645888328552,9.822729110717773,0.008319981372026608,9.826368769870209,449,1
1.4196940809488297,246,40224,0.011717909015715122,-0.015978965908288956,0.001065264455974102,-0.13099364936351776,-0.19379882514476776,9.77248477935791,0.019843677369882837,9.775283938770427,449,1
1.424691330990754,247,40229,0.014913702383637428,-0.00532632227987051,0.007456851191818714,-0.22250975668430328,-0.18482665717601776,9.810168266296387,0.017504081167364537,9.814431868328967,449,1
1.429657656000927,248,40234,0.022370554506778717,-0.004261057823896408,0.013848437927663326,-0.11125487834215164,-0.21892090141773224,9.869384765625,0.026652908954853137,9.87243939768603,449,1
1.434662610059604,249,40239,0.014913702383637428,-0.022370554506778717,0.001065264455974102,-0.16867674887180328,-0.39118650555610657,9.77248477935791,0.02690715548120299,9.781765561007951,449,0
1.4397011930122972,250,40244,-0.002130528911948204,0.002130528911948204,-0.013848437927663326,-0.02332763560116291,-0.18303222954273224,9.84246826171875,0.014172421808767847,9.844197603592434,449,1
1.444679919979535,251,40249,-0.004261057823896408,-0.013848437927663326,0.014913702383637428,-0.14893798530101776,-0.24942626059055328,9.785046577453613,0.02079313265486097,9.789358125325398,449,1
1.4495859610615298,252,40254,-0.001065264455974102,-0.0,0.00532632227987051,-0.09689941257238388,-0.18482665717601776,9.85323429107666,0.005431804248148748,9.85544399731482,449,1
1.454525000997819,253,40259,0.007456851191818714,0.014913702383637428,0.012783173471689224,-0.13278807699680328,-0.16688232123851776,9.76351261138916,0.021010299200438343,9.765841535438184,449,1
1.4595626840600744,254,40264,0.002130528911948204,0.002130528911948204,0.006391586735844612,-0.20815429091453552,-0.22250975668430328,9.78145694732666,0.0070661650059363305,9.786201449645864,449,1
1.4645942059578374,255,40269,0.009587380103766918,0.00532632227987051,0.023435818031430244,-0.14714355766773224,-0.22609862685203552,9.84426212310791,0.025875183730467727,9.847957583381671,449,1
1.4696279920171946,0,40274,0.006391586735844612,-0.003195793367922306,-0.006391586735844612,-0.15073241293430328,-0.18123778700828552,9.720446586608887,0.009587380103766918,9.723304440305519,449,1
1.4746180820511654,1,40279,0.002130528911948204,-0.007456851191818714,0.009587380103766918,-0.22789306938648224,-0.24763183295726776,9.741979598999023,0.012331327600695764,9.747790687283008,449,1
1.479651106055826,2,40284,0.007456851191818714,-0.004261057823896408,0.012783173471689224,-0.14176024496555328,-0.2530151307582855,9.804784774780273,0.015400349589629974,9.809073203071144,449,1
1.484591820044443,3,40289,-0.001065264455974102,-0.023435818031430244,0.020240023732185364,-0.12381591647863388,-0.21533203125,9.83528995513916,0.030984365667912253,9.838426030952155,449,1
1.4896232630126178,4,40294,0.006391586735844612,-0.00532632227987051,0.015978965908288956,-0.13458251953125,-0.20635986328125,9.810168266296387,0.018015255799714042,9.813261346809504,449,1
1.4946284709731117,5,40299,0.003195793367922306,0.012783173471689224,0.017044231295585632,-0.10946045070886612,-0.19379882514476776,9.767102241516113,0.021543640354294256,9.769637954966703,449,1
1.4995992829790339,6,40304,0.008522115647792816,-0.013848437927663326,0.001065264455974102,-0.17585448920726776,-0.287109375,9.810168266296387,0.016295412744446246,9.815944071134263,449,1
1.504630038049072,7,40309,0.0,0.003195793367922306,0.011717909015715122,-0.08792724460363388,-0.23686523735523224,9.80657958984375,0.012145883539332738,9.809833820863172,449,1
1.509626485989429,8,40314,0.009587380103766918,-0.020240023732185364,0.017044231295585632,-0.1435546875,-0.2889038026332855,9.77248477935791,0.028143955628002138,9.777808144889182,449,1
1.5146454779896885,9,40319,0.012783173471689224,-0.014913702383637428,-0.003195793367922306,-0.09689941257238388,-0.20456542074680328,9.8514404296875,0.019900782347572872,9.854040544223654,449,1
1.519590405980125,10,40324,-0.015978965908288956,-0.001065264455974102,-0.001065264455974102,-0.0538330078125,-0.29249265789985657,9.729418754577637,0.016049826423378676,9.733963183081315,449,0
1.5246139609953389,11,40329,0.014913702383637428,-0.015978965908288956,0.013848437927663326,-0.1435546875,-0.15791015326976776,9.810168266296387,0.025875183155338582,9.812489234534608,449,1
1.5296213650144637,12,40334,0.009587380103766918,-0.022370554506778717,0.02130528911948204,-0.16329345107078552,-0.15611572563648224,9.731213569641113,0.032346173045038625,9.733835544579586,449,1
1.534527543000877,13,40339,-0.01065264455974102,0.002130528911948204,-0.006391586735844612,-0.15611572563648224,-0.09331054240465164,9.72762393951416,0.012604379023285992,9.729324050812771,449,1
1.5396233559586108,14,40344,0.014913702383637428,-0.009587380103766918,0.014913702383637428,-0.17047119140625,-0.27813720703125,9.795812606811523,0.023167971314500786,9.80124305181757,449,1
1.5445220189867541,15,40349,0.004261057823896408,-0.014913702383637428,0.02876213937997818,-0.10048828274011612,-0.13817138969898224,9.847851753234863,0.03267775687343905,9.849333651653312,449,1
1.5496597150340676,16,40354,-0.003195793367922306,-0.006391586735844612,-0.003195793367922306,-0.1973876953125,-0.2332763671875,9.71685791015625,0.007828063074780196,9.721661761855072,449,1
1.5547321919584647,17,40359,-0.00532632227987051,-0.00532632227987051,0.0,-0.17585448920726776,-0.18662108480930328,9.78145694732666,0.0075325572057628595,9.78481743534721,449,1
1.5597094839904457,18,40364,0.0,-0.001065264455974102,0.0,-0.22250975668430328,-0.15970458090305328,9.80837345123291,0.001065264455974102,9.812196792962915,449,1
1.564690461033024,19,40369,-0.009587380103766918,-0.022370554506778717,0.003195793367922306,-0.15073241293430328,-0.23686523735523224,9.828112602233887,0.024547355487818227,9.832121984758167,449,1
1.569682591012679,20,40374,0.0,-0.006391586735844612,0.011717909015715122,-0.11484374850988388,-0.18482665717601776,9.77248477935791,0.01334772537559874,9.774907096364482,449,1
1.5747402049601078,21,40379,0.013848437927663326,-0.006391586735844612,-0.007456851191818714,-0.12740477919578552,-0.13996581733226776,9.77248477935791,0.016977521719470635,9.774317427348338,449,1
1.5797212090110406,22,40384,0.007456851191818714,-0.015978965908288956,-0.015978965908288956,-0.15073241293430328,-0.15791015326976776,9.794018745422363,0.023796204165653177,9.79645135048908,449,1
1.5847322220215574,23,40389,0.006391586735844612,-0.00532632227987051,0.002130528911948204,-0.13458251953125,-0.179443359375,9.76171875,0.008588436614164243,9.764295434279358,449,1
1.5897183580091223,24,40394,0.00532632227987051,-0.01065264455974102,0.001065264455974102,-0.20815429091453552,-0.251220703125,9.76171875,0.011957563861689668,9.767169139756223,449,1
1.5946897079702467,25,40399,0.001065264455974102,-0.006391586735844612,0.001065264455974102,-0.014355468563735485,-0.2530151307582855,9.73659610748291,0.006566731129271883,9.739893556714144,449,0
1.5996751430211589,26,40404,0.011717909015715122,0.02130528911948204,0.022370554506778717,-0.12919922173023224,-0.21712645888328552,9.722241401672363,0.03304037598312185,9.72552385275133,449,1
1.60467208805494,27,40409,-0.008522115647792816,0.008522115647792816,-0.014913702383637428,-0.12381591647863388,-0.18841552734375,9.741979598999023,0.019174760207533836,9.744588103118101,449,1
1.6096849730238318,28,40414,0.009587380103766918,-0.008522115647792816,-0.013848437927663326,-0.15073241293430328,-0.17585448920726776,9.80837345123291,0.018876534253003254,9.811107726476859,449,1
1.6147199569968507,29,40419,0.013848437927663326,0.004261057823896408,-0.01810949668288231,-0.06639403849840164,-0.20994873344898224,9.874768257141113,0.023192449567095284,9.877223029337078,449,1
1.6197130699874833,30,40424,0.001065264455974102,0.002130528911948204,-0.008522115647792816,-0.16508789360523224,-0.38939207792282104,9.587658882141113,0.008848751150312917,9.59698301776467,449,0
1.6246804719557986,31,40429,0.008522115647792816,-0.019174760207533836,0.00532632227987051,-0.19200439751148224,-0.3606811463832855,9.881945610046387,0.021648731906507207,9.89038955845194,449,0
1.6297091329470277,32,40434,0.011717909015715122,-0.020240023732185364,-0.013848437927663326,-0.08792724460363388,-0.107666015625,9.8155517578125,0.027179904072979152,9.81653602252649,449,1
1.6347033659694716,33,40439,-0.01065264455974102,-0.012783173471689224,0.015978965908288956,-0.12202148139476776,-0.29608154296875,9.747363090515137,0.02306980085786914,9.752622249443753,449,1
1.6396877020597458,34,40444,0.011717909015715122,-0.009587380103766918,0.003195793367922306,-0.10228271037340164,-0.10587158054113388,9.75274658203125,0.015473860029260305,9.753857515759078,449,1
1.6446025479817763,35,40449,0.013848437927663326,-0.012783173471689224,0.006391586735844612,-0.19918212294578552,-0.12202148139476776,9.77248477935791,0.019900782347572872,9.775276033074718,449,1
1.649675079039298,36,40454,-0.01065264455974102,-0.01810949668288231,0.007456851191818714,-0.14714355766773224,-0.2853149473667145,9.87117862701416,0.022294334166339965,9.876397285051628,449,1
1.6547404150478542,37,40459,0.001065264455974102,-0.006391586735844612,0.008522115647792816,-0.17764891684055328,-0.15791015326976776,9.774279594421387,0.010705775286140735,9.777169137540918,449,1
1.6596115459688008,38,40464,-0.001065264455974102,-0.0,-0.006391586735844612,-0.15432128310203552,-0.27275389432907104,9.847851753234863,0.006479750717657785,9.852836845243147,449,1
1.664634168962948,39,40469,0.017044231295585632,0.002130528911948204,0.008522115647792816,-0.11484374850988388,-0.23686523735523224,9.774279594421387,0.019174760207533836,9.777823674886015,449,1
1.6695068019907922,40,40474,0.004261057823896408,-0.006391586735844612,0.01065264455974102,-0.15252685546875,-0.12202148139476776,9.73480224609375,0.013133462258543767,9.736761702645952,449,1
1.6747066730167717,41,40479,0.009587380103766918,-0.014913702383637428,-0.00532632227987051,-0.13458251953125,-0.2763427793979645,9.75454044342041,0.018512322519631714,9.759382001367364,449,1
1.679608213948086,42,40484,-0.004261057823896408,0.008522115647792816,-0.011717909015715122,-0.11484374850988388,-0.18841552734375,9.82631778717041,0.015102730236401685,9.828794979649215,449,1
1.6846278429729864,43,40489,0.009587380103766918,-0.015978965908288956,0.009587380103766918,-0.13278807699680328,-0.16867674887180328,9.8514404296875,0.02095621783639577,9.85377912573059,449,1
1.6897136960178614,44,40494,-0.003195793367922306,-0.009587380103766918,0.004261057823896408,-0.14893798530101776,-0.27813720703125,9.747363090515137,0.010967568841049085,9.752467895242592,449,1
1.69472248503007,45,40499,0.01065264455974102,-0.011717909015715122,0.014913702383637428,-0.15970458090305328,-0.24404296278953552,9.80657958984375,0.021753315761153986,9.810915643954367,449,1
1.6996688010403886,46,40504,0.00532632227987051,0.00532632227987051,0.022370554506778717,-0.12022704631090164,-0.25660398602485657,9.80837345123291,0.023604684429130746,9.812466046165921,449,1
1.7047186510171741,47,40509,0.020240023732185364,-0.00532632227987051,0.014913702383637428,-0.14176024496555328,-0.17585448920726776,9.82452392578125,0.025699159295513627,9.827120185317531,449,1
1.7096000040182844,48,40514,-0.013848437927663326,-0.006391586735844612,-0.00532632227987051,-0.10407714545726776,-0.17047119140625,9.83349609375,0.016155535369253904,9.835524282167297,449,1
1.7147201329935342,49,40519,0.001065264455974102,-0.001065264455974102,-0.001065264455974102,-0.15073241293430328,-0.19020995497703552,9.856823921203613,0.0018450921612443642,9.859811250774182,449,1
1.7196591909741983,50,40524,0.007456851191818714,-0.007456851191818714,-0.001065264455974102,0.03947753831744194,-0.2709594666957855,9.78145694732666,0.010599247508904496,9.785288831763152,449,0
1.7246014809934422,51,40529,-0.020240023732185364,-0.006391586735844612,0.01065264455974102,-0.11304931342601776,-0.21353758871555328,9.747363090515137,0.02374846895691239,9.75035720716925,449,1
1.7297064800513908,52,40534,-0.006391586735844612,-0.003195793367922306,-0.014913702383637428,-0.10048828274011612,-0.24942626059055328,9.785046577453613,0.016537351512258356,9.788740872930333,449,1
1.7346803180407733,53,40539,-0.00532632227987051,-0.008522115647792816,0.017044231295585632,-0.14893798530101776,-0.21174316108226776,9.79940128326416,0.019786409088079143,9.802820165654877,449,1
1.7396863719914109,54,40544,0.009587380103766918,-0.001065264455974102,0.011717909015715122,-0.13996581733226776,-0.22968749701976776,9.80837345123291,0.015177682211584392,9.812060769031104,449,1
1.7447318179765716,55,40549,0.007456851191818714,-0.006391586735844612,0.026631612330675125,-0.11663818359375,-0.21533203125,9.78863525390625,0.028384851347684037,9.791698140954438,449,1
1.7497581059578806,56,40554,0.008522115647792816,0.007456851191818714,-0.001065264455974102,-0.16688232123851776,-0.26019287109375,9.77069091796875,0.011373911955543051,9.775579320622741,449,1
1.7547035940224305,57,40559,-0.004261057823896408,-0.017044231295585632,0.013848437927663326,-0.13996581733226776,-0.24224853515625,9.810168266296387,0.022370553575456142,9.814156927411315,449,1
1.7596281060250476,58,40564,0.009587380103766918,0.001065264455974102,-0.004261057823896408,-0.15252685546875,-0.24942626059055328,9.79042911529541,0.010545580088068003,9.794793523231382,449,1
1.7646010509924963,59,40569,-0.001065264455974102,-0.003195793367922306,-0.002130528911948204,-0.15611572563648224,-0.14893798530101776,9.77069091796875,0.003985854620563223,9.773072989481534,449,1
1.7696468620561063,60,40574,0.014913702383637428,-0.007456851191818714,0.008522115647792816,-0.1614990234375,-0.20994873344898224,9.801196098327637,0.0187256402720707,9.804774620720304,449,1
1.7747591140214354,61,40579,0.01810949668288231,-0.022370554506778717,0.001065264455974102,-0.17047119140625,-0.12202148139476776,9.83349609375,0.028801568835902753,9.835730531832283,449,1
1.7795045709935948,62,40584,0.002130528911948204,-0.015978965908288956,0.007456851191818714,-0.17047119140625,-0.22968749701976776,9.76171875,0.017761507104968207,9.765908545931005,449,1
1.7847000800538808,63,40589,0.002130528911948204,-0.006391586735844612,-0.004261057823896408,-0.16329345107078552,-0.21174316108226776,9.783251762390137,0.007971709241126446,9.786905280206682,449,1
1.789642254007049,64,40594,0.012783173471689224,0.013848437927663326,-0.02130528911948204,-0.11304931342601776,-0.16867674887180328,9.82452392578125,0.028444755254850816,9.826622123655936,449,1
1.794743451057002,65,40599,-0.008522115647792816,0.003195793367922306,-0.026631612330675125,-0.17764891684055328,-0.21892090141773224,9.856823921203613,0.028143957179049623,9.860855100463851,449,1
1.799636912997812,66,40604,0.002130528911948204,-0.00532632227987051,0.024501081556081772,-0.15970458090305328,-0.19020995497703552,9.786840438842773,0.02516370123593631,9.789991376681698,449,1
1.8046501099597663,67,40609,-0.017044231295585632,0.00532632227987051,0.01065264455974102,-0.13637694716453552,-0.17585448920726776,9.794018745422363,0.02079313265486097,9.79654667006578,449,1
1.8097623359644786,68,40614,-0.011717909015715122,0.006391586735844612,0.004261057823896408,-0.17764891684055328,-0.24404296278953552,9.804784774780273,0.014011366331696253,9.809430186565617,449,1
1.814626598963514,69,40619,0.009587380103766918,-0.007456851191818714,-0.011717909015715122,-0.06998290866613388,-0.15073241293430328,9.74556827545166,0.016876962956989972,9.74698511742499,449,1
1.8196110019925982,70,40624,-0.007456851191818714,-0.003195793367922306,-0.009587380103766918,-0.1256103515625,-0.18662108480930328,9.813756942749023,0.012559282710469183,9.816334892467236,449,1
1.8246128449682146,71,40629,-0.009587380103766918,-0.001065264455974102,-0.002130528911948204,-0.16329345107078552,-0.21712645888328552,9.750951766967773,0.009878856161515601,9.75473572230646,449,1
1.8296375470235944,72,40634,0.012783173471689224,-0.006391586735844612,-0.004261057823896408,-0.107666015625,-0.18123778700828552,9.801196098327637,0.014913702383637428,9.803462860858561,449,1
1.8347827290417627,73,40639,-0.004261057823896408,-0.019174760207533836,0.008522115647792816,-0.21174316108226776,-0.20815429091453552,9.82631778717041,0.02141155057228147,9.830802847659637,449,1
1.839597104000859,74,40644,-0.002130528911948204,-0.012783173471689224,-0.006391586735844612,-0.15611572563648224,-0.20456542074680328,9.84246826171875,0.014449950119421559,9.845831636489486,449,1
1.8448326779762283,75,40649,0.012783173471689224,-0.014913702383637428,0.012783173471689224,-0.18662108480930328,-0.16867674887180328,9.785046577453613,0.023435818031430244,9.788279511632371,449,1
1.8496711320476606,76,40654,-0.001065264455974102,0.009587380103766918,-0.013848437927663326,-0.14714355766773224,-0.17585448920726776,9.795812606811523,0.016876962956989972,9.798495836387595,449,1
1.8546251129591838,77,40659,-0.00532632227987051,-0.009587380103766918,-0.019174760207533836,-0.15611572563648224,-0.19020995497703552,9.81734561920166,0.022089793917091528,9.820429061584907,449,1
1.8595832290593535,78,40664,0.006391586735844612,-0.002130528911948204,-0.002130528911948204,-0.08254394680261612,-0.17047119140625,9.768896102905273,0.0070661650059363305,9.770732060578217,449,1
1.8646464790217578,79,40669,-0.00532632227987051,-0.003195793367922306,-0.013848437927663326,-0.12381591647863388,-0.15970458090305328,9.78145694732666,0.015177682211584392,9.783544140378774,449,1
1.869612162001431,80,40674,-0.008522115647792816,-0.011717909015715122,-0.02556634694337845,-0.11125487834215164,-0.18841552734375,9.80657958984375,0.029386628640320916,9.809020405261636,449,1
1.8746217919979244,81,40679,0.009587380103766918,-0.022370554506778717,-0.008522115647792816,-0.09331054240465164,-0.20456542074680328,9.846056938171387,0.02578732287984192,9.848623817488516,449,1
1.879594168975018,82,40684,0.004261057823896408,0.009587380103766918,-0.047936901450157166,-0.11125487834215164,-0.22250975668430328,9.819140434265137,0.04907159047427315,9.822291336933311,449,1
1.8847146850312129,83,40689,-0.027696875855326653,-0.008522115647792816,-0.006391586735844612,-0.13458251953125,-0.17226561903953552,9.776074409484863,0.0296748339213812,9.778518229151658,449,1
1.8896064759464934,84,40694,-0.01065264455974102,0.001065264455974102,-0.006391586735844612,-0.10407714545726776,-0.18123778700828552,9.81734561920166,0.012468600782732863,9.819569959754054,449,1
1.8946272099856287,85,40699,-0.009587380103766918,0.012783173471689224,-0.013848437927663326,-0.09151611477136612,-0.2530151307582855,9.79940128326416,0.02114489570316555,9.803094275079413,449,1
1.8997157720150426,86,40704,0.002130528911948204,-0.002130528911948204,-0.008522115647792816,-0.15073241293430328,-0.18123778700828552,9.811963081359863,0.009039068646915432,9.814794287488535,449,1
1.9046007309807464,87,40709,-0.001065264455974102,0.004261057823896408,0.00532632227987051,-0.17764891684055328,-0.21892090141773224,9.792223930358887,0.006903702714398672,9.79628169261304,449,1
1.9097609149757773,88,40714,-0.012783173471689224,-0.004261057823896408,-0.013848437927663326,-0.1614990234375,-0.15611572563648224,9.83528995513916,0.01932214715869414,9.837854570790501,449,1
1.9147170700598508,89,40719,0.007456851191818714,0.01065264455974102,0.0,-0.13278807699680328,-0.15432128310203552,9.722241401672363,0.013003209827312182,9.724372761479424,449,1
1.9196133860386908,90,40724,-0.009587380103766918,-0.001065264455974102,-0.00532632227987051,-0.09510497748851776,-0.18662108480930328,9.83528995513916,0.011019181214786903,9.83752005780419,449,1
1.9246139669558033,91,40729,0.012783173471689224,-0.011717909015715122,0.00532632227987051,-0.15073241293430328,-0.17764891684055328,9.702502250671387,0.01814080000267138,9.705299033118298,449,1
1.92969348304905,92,40734,-0.003195793367922306,-0.006391586735844612,-0.01810949668288231,-0.11125487834215164,-0.2530151307582855,9.750951766967773,0.01946841920546212,9.754868254675689,449,1
1.934647939982824,93,40739,0.007456851191818714,-0.002130528911948204,-0.011717909015715122,-0.10946045070886612,-0.19379882514476776,9.785046577453613,0.014051803259445142,9.78757764198239,449,1
1.9395502300467342,94,40744,0.008522115647792816,0.001065264455974102,0.007456851191818714,-0.10048828274011612,-0.18662108480930328,9.8155517578125,0.011373911955543051,9.817839967862561,449,1
1.9447732899570838,95,40749,-0.006391586735844612,-0.0,-0.004261057823896408,-0.16867674887180328,-0.23865966498851776,9.765307426452637,0.007681731235887753,9.76967959630373,449,1
1.9496815010206774,96,40754,0.008522115647792816,-0.002130528911948204,-0.008522115647792816,-0.13637694716453552,-0.20635986328125,9.738390922546387,0.012238956804946962,9.741531749433722,449,1
1.9546106030466035,97,40759,0.01065264455974102,-0.002130528911948204,0.011717909015715122,-0.12919922173023224,-0.17406006157398224,9.7796630859375,0.01597896683961153,9.782065191889666,449,1
1.9595886019524187,98,40764,0.015978965908288956,-0.0,-0.007456851191818714,-0.19559325277805328,-0.15073241293430328,9.7796630859375,0.01763326348680779,9.782780129149888,449,1
1.9646366250235587,99,40769,0.012783173471689224,0.006391586735844612,-0.017044231295585632,-0.15791015326976776,-0.19020995497703552,9.72762393951416,0.022243374866834947,9.730764767071857,449,1
1.9696090050274506,100,40774,0.003195793367922306,-0.008522115647792816,-0.017044231295585632,-0.16688232123851776,-0.13099364936351776,9.810168266296387,0.01932214715869414,9.812461997804842,449,1
1.9746936080045998,101,40779,0.008522115647792816,0.006391586735844612,0.002130528911948204,-0.1435546875,-0.15970458090305328,9.80837345123291,0.010863608496297496,9.810723890738911,449,1
1.9798886290518567,102,40784,-0.00532632227987051,-0.007456851191818714,-0.02130528911948204,-0.13637694716453552,-0.24224853515625,9.78863525390625,0.023192448839885214,9.792582047576602,449,1
1.984724662033841,103,40789,-0.003195793367922306,-0.0,-0.011717909015715122,-0.07536620646715164,-0.23686523735523224,9.82452392578125,0.012145883539332738,9.827667860382382,449,1
1.989784055040218,104,40794,-0.008522115647792816,-0.011717909015715122,0.002130528911948204,-0.14534911513328552,-0.24942626059055328,9.838879585266113,0.014644965013941826,9.843113903542339,449,1
1.9947432860499248,105,40799,-0.002130528911948204,-0.01810949668288231,-0.023435818031430244,-0.15970458090305328,-0.22430419921875,9.7796630859375,0.02969394871609843,9.783538623698337,449,1
1.9996373079484329,106,40804,-0.003195793367922306,-0.015978965908288956,-0.013848437927663326,-0.14176024496555328,-0.22609862685203552,9.783251762390137,0.021385034014119803,9.786890803642738,449,1
2.0047230860218406,107,40809,0.001065264455974102,-0.008522115647792816,-0.023435818031430244,-0.13817138969898224,-0.1973876953125,9.777868270874023,0.024959944116079828,9.780836424240878,449,1
2.0096287770429626,108,40814,-0.003195793367922306,-0.019174760207533836,0.002130528911948204,-0.17406006157398224,-0.1614990234375,9.811963081359863,0.0195556559008264,9.8148356251939,449,1
2.0147201149957255,109,40819,-0.029827404767274857,-0.019174760207533836,-0.023435818031430244,-0.08433837443590164,-0.21892090141773224,9.78863525390625,0.042503918301370576,9.791446239269066,449,1
2.019673857023008,110,40824,-0.011717909015715122,-0.002130528911948204,0.002130528911948204,-0.19559325277805328,-0.19559325277805328,9.837084770202637,0.012099078419031432,9.840973032033839,449,1
2.0247105329763144,111,40829,-0.004261057823896408,0.007456851191818714,0.015978965908288956,-0.17226561903953552,-0.26378172636032104,9.819140434265137,0.018140799182334213,9.82419335673343,449,1
2.029671889031306,112,40834,0.003195793367922306,-0.01065264455974102,-0.008522115647792816,-0.15432128310203552,-0.22071532905101776,9.8155517578125,0.014011366331696253,9.81924572587897,449,1
2.0347088529961184,113,40839,0.009587380103766918,-0.01810949668288231,-0.001065264455974102,-0.14534911513328552,-0.19020995497703552,9.738390922546387,0.020518443306513118,9.741332760591657,449,1
2.0397151400102302,114,40844,-0.001065264455974102,-0.012783173471689224,-0.007456851191818714,-0.15611572563648224,-0.19020995497703552,9.79042911529541,0.0148374169606906,9.79352103221244,449,1
2.0446474209893495,115,40849,-0.002130528911948204,-0.006391586735844612,0.017044231295585632,-0.15252685546875,-0.23686523735523224,9.79042911529541,0.01832750269141687,9.794481703690636,449,1
2.049665478989482,116,40854,0.006391586735844612,-0.003195793367922306,0.007456851191818714,-0.09869384765625,-0.17585448920726776,9.792223930358887,0.010328122092094437,9.794300116865564,449,1
2.0547456690110266,117,40859,0.006391586735844612,-0.012783173471689224,0.024501081556081772,-0.15791015326976776,-0.22071532905101776,9.777868270874023,0.028364853294647836,9.781633748794153,449,1
2.059637265978381,118,40864,-0.002130528911948204,0.001065264455974102,0.008522115647792816,-0.13099364936351776,-0.21174316108226776,9.8155517578125,0.008848751150312917,9.818709223351853,449,1
2.064705476979725,119,40869,0.004261057823896408,-0.006391586735844612,-0.001065264455974102,-0.15970458090305328,-0.18123778700828552,9.738390922546387,0.007755242300636091,9.741386474672634,449,1
2.069655015016906,120,40874,0.004261057823896408,0.002130528911948204,0.0,-0.18482665717601776,-0.19559325277805328,9.722241401672363,0.004764007475144848,9.725965015674658,449,1
2.0746831910219043,121,40879,0.01065264455974102,-0.014913702383637428,0.009587380103766918,-0.1614990234375,-0.19020995497703552,9.810168266296387,0.02068369435468428,9.813341081129927,449,1
2.07974572700914,122,40884,-0.017044231295585632,-0.015978965908288956,0.015978965908288956,-0.16867674887180328,-0.17226561903953552,9.797607421875,0.028304779162783483,9.800573375180306,449,1
2.0847036079503596,123,40889,-0.00532632227987051,0.013848437927663326,0.017044231295585632,-0.15252685546875,-0.23865966498851776,9.79940128326416,0.022597671617288578,9.803493682752638,449,1
2.0896095959469676,124,40894,0.003195793367922306,0.007456851191818714,-0.002130528911948204,-0.18303222954273224,-0.18123778700828552,9.804784774780273,0.008387900714244988,9.808167637854387,449,1
2.094695879961364,125,40899,-0.001065264455974102,-0.011717909015715122,-0.006391586735844612,-0.15611572563648224,-0.21174316108226776,9.783251762390137,0.013390166580874352,9.786788152012171,449,1
2.099756586016156,126,40904,0.009587380103766918,-0.008522115647792816,-0.002130528911948204,-0.15970458090305328,-0.1973876953125,9.79042911529541,0.013003209827312182,9.793720933181946,449,1
2.1047451089834794,127,40909,0.003195793367922306,-0.015978965908288956,0.017044231295585632,-0.17406006157398224,-0.21353758871555328,9.810168266296387,0.023580633307995303,9.8140356948545,449,1
2.1097237130161375,128,40914,0.003195793367922306,-0.001065264455974102,-0.001065264455974102,-0.15791015326976776,-0.19559325277805328,9.82452392578125,0.0035330825029681653,9.827739450417182,449,1
2.114698573946953,129,40919,-0.003195793367922306,-0.00532632227987051,0.002130528911948204,-0.13099364936351776,-0.20815429091453552,9.819140434265137,0.006566731129271883,9.822220034840404,449,1
2.1196351560065523,130,40924,-0.004261057823896408,-0.007456851191818714,0.01065264455974102,-0.10946045070886612,-0.16329345107078552,9.822729110717773,0.01368356969477252,9.824696103390393,449,1
2.124719843035564,131,40929,0.011717909015715122,0.008522115647792816,0.002130528911948204,-0.15073241293430328,-0.20097656548023224,9.81734561920166,0.014644965013941826,9.820559395830731,449,1
2.1296848190249875,132,40934,0.00532632227987051,-0.004261057823896408,0.001065264455974102,-0.18123778700828552,-0.2709594666957855,9.82631778717041,0.006903702714398672,9.831723522480344,449,1
2.134712773025967,133,40939,0.007456851191818714,-0.00532632227987051,0.008522115647792816,-0.09689941257238388,-0.17226561903953552,9.774279594421387,0.012514023886837053,9.776277744089631,449,1
2.1396988859632984,134,40944,0.015978965908288956,-0.01065264455974102,-0.001065264455974102,-0.12740477919578552,-0.19559325277805328,9.80837345123291,0.019233849744021668,9.811150720335755,449,1
2.144653936033137,135,40949,-0.015978965908288956,-0.008522115647792816,0.009587380103766918,-0.12381591647863388,-0.20456542074680328,9.797607421875,0.02049077021165192,9.800524913784917,449,1
2.149697292014025,136,40954,0.014913702383637428,-0.006391586735844612,0.017044231295585632,-0.16508789360523224,-0.19918212294578552,9.79940128326416,0.023532460990023082,9.802815567027437,449,1
2.154735311982222,137,40959,0.003195793367922306,-0.002130528911948204,0.0,-0.11663818359375,-0.17764891684055328,9.783251762390137,0.0038408656179438764,9.785559700386912,449,1
2.1597652540076524,138,40964,-0.004261057823896408,-0.007456851191818714,0.003195793367922306,-0.16329345107078552,-0.179443359375,9.819140434265137,0.009163751345708435,9.822137422079114,449,1
2.1647098789690062,139,40969,0.001065264455974102,-0.011717909015715122,0.02556634694337845,-0.19559325277805328,-0.19200439751148224,9.77248477935791,0.028143956297772638,9.776327591277722,449,1
2.1697132339468226,140,40974,0.003195793367922306,-0.007456851191818714,0.001065264455974102,-0.13996581733226776,-0.21353758871555328,9.722241401672363,0.00818245154636104,9.725593380571086,449,1
2.174717582995072,141,40979,0.007456851191818714,0.004261057823896408,0.007456851191818714,-0.19200439751148224,-0.20277099311351776,9.7796630859375,0.011373911955543051,9.783649208693072,449,1
2.1797159269917756,142,40984,0.003195793367922306,-0.020240023732185364,0.014913702383637428,-0.12022704631090164,-0.24763183295726776,9.80657958984375,0.025343444413054743,9.810442361040527,449,1
2.184699213015847,143,40989,-0.001065264455974102,-0.003195793367922306,0.030892670154571533,-0.13996581733226776,-0.23148192465305328,9.738390922546387,0.031075793680785897,9.74214720027348,449,1
2.189747025957331,144,40994,-0.00532632227987051,0.003195793367922306,0.009587380103766918,-0.15791015326976776,-0.13996581733226776,9.756335258483887,0.01142368861329855,9.75861689597778,449,1
2.194770967005752,145,40999,0.004261057823896408,-0.015978965908288956,0.004261057823896408,-0.16329345107078552,-0.21892090141773224,9.811963081359863,0.017077487492469092,9.815763374399829,449,1
2.1997192229609936,146,41004,-0.009587380103766918,0.003195793367922306,0.004261057823896408,-0.14176024496555328,-0.19918212294578552,9.783251762390137,0.010967568841049085,9.786305969642662,449,1
2.2047516469610855,147,41009,-0.014913702383637428,-0.0,0.006391586735844612,-0.1256103515625,-0.23148192465305328,9.80657958984375,0.01622562478888063,9.810115447526638,449,1
2.209703612024896,148,41014,0.008522115647792816,0.00532632227987051,0.015978965908288956,-0.08613280951976776,-0.15611572563648224,9.758130073547363,0.018876533464639658,9.759758886004112,449,1
2.2146741220494732,149,41019,0.009587380103766918,-0.026631612330675125,-0.003195793367922306,-0.10946045070886612,-0.20097656548023224,9.79042911529541,0.028484622655670363,9.793103462731601,449,1
2.2198144890135154,150,41024,0.003195793367922306,0.01065264455974102,-0.007456851191818714,-0.20456542074680328,-0.17764891684055328,9.804784774780273,0.013390166580874352,9.808527444462955,449,1
2.224733666051179,151,41029,-0.002130528911948204,-0.003195793367922306,-0.00532632227987051,-0.14534911513328552,-0.15073241293430328,9.783251762390137,0.006566731129271883,9.785492408248485,449,1
2.22971314098686,152,41034,-0.011717909015715122,-0.01065264455974102,-0.001065264455974102,-0.1256103515625,-0.19379882514476776,9.80657958984375,0.015872082918694682,9.809298608819448,449,1
2.2347808360354975,153,41039,0.002130528911948204,-0.01810949668288231,0.001065264455974102,-0.07177734375,-0.21533203125,9.783251762390137,0.01826548143118966,9.785884472906258,449,1
2.239677926991135,154,41044,0.01810949668288231,-0.012783173471689224,0.011717909015715122,-0.12202148139476776,-0.19379882514476776,9.767102241516113,0.02507334811737759,9.769786764447746,449,1
2.244657199946232,155,41049,-0.008522115647792816,-0.02130528911948204,0.011717909015715122,-0.13996581733226776,-0.19020995497703552,9.80657958984375,0.02576530984249273,9.80942268989026,449,1
2.249619262991473,156,41054,-0.003195793367922306,-0.007456851191818714,0.003195793367922306,-0.18303222954273224,-0.17585448920726776,9.84426212310791,0.008719565367484814,9.84753382055034,449,1
2.2547341090394184,157,41059,0.001065264455974102,-0.006391586735844612,0.026631612330675125,-0.13637694716453552,-0.22250975668430328,9.79042911529541,0.027408574291530634,9.793906857080156,449,1
2.2597479099640623,158,41064,0.004261057823896408,-0.013848437927663326,0.020240023732185364,-0.17585448920726776,-0.22430419921875,9.795812606811523,0.024891653370042732,9.799958255162574,449,1
2.264763499959372,159,41069,0.019174760207533836,-0.001065264455974102,0.013848437927663326,-0.16508789360523224,-0.179443359375,9.804784774780273,0.02367668579877532,9.80781618973367,449,1
2.269735755980946,160,41074,0.015978965908288956,-0.001065264455974102,-0.01810949668288231,-0.09689941257238388,-0.19559325277805328,9.786840438842773,0.024174697722344905,9.789274334293497,449,1
2.274768315954134,161,41079,-0.009587380103766918,-0.001065264455974102,0.004261057823896408,-0.13278807699680328,-0.21712645888328552,9.747363090515137,0.010545580088068003,9.750685298525253,449,1
2.2798849350074306,162,41084,-0.001065264455974102,0.006391586735844612,0.0,-0.18841552734375,-0.23148192465305328,9.8155517578125,0.006479750717657785,9.82008862499119,449,1
2.284776421962306,163,41089,0.006391586735844612,0.014913702383637428,0.003195793367922306,-0.1614990234375,-0.17764891684055328,9.76351261138916,0.016537351512258356,9.76646402670798,449,1
2.2896672829519957,164,41094,0.002130528911948204,0.007456851191818714,0.008522115647792816,-0.11484374850988388,-0.17585448920726776,9.837084770202637,0.011522596853831628,9.83932673835455,449,1
2.2947985020000488,165,41099,-0.00532632227987051,-0.004261057823896408,0.009587380103766918,-0.13458251953125,-0.16688232123851776,9.820935249328613,0.011766230495011541,9.823274980128094,449,1
2.2997211740585044,166,41104,0.002130528911948204,0.003195793367922306,0.00532632227987051,-0.10228271037340164,-0.17047119140625,9.872973442077637,0.006566731129271883,9.874974773026569,449,1
2.3046871409751475,167,41109,-0.006391586735844612,0.01065264455974102,0.037284255027770996,-0.08254394680261612,-0.17406006157398224,9.802990913391113,0.03929945152408455,9.804883541185873,449,1
2.3097648629918694,168,41114,0.00532632227987051,0.01065264455974102,0.002130528911948204,-0.14893798530101776,-0.15252685546875,9.831701278686523,0.012099078419031432,9.834012253319138,449,1
2.3147343760356307,169,41119,-0.003195793367922306,-0.001065264455974102,0.020240023732185364,-0.15073241293430328,-0.18662108480930328,9.820935249328613,0.02051844156584619,9.823864660158428,449,1
2.319665538961999,170,41124,0.002130528911948204,0.003195793367922306,0.013848437927663326,-0.11843261867761612,-0.22789306938648224,9.741979598999023,0.014371203210985763,9.745364438724414,449,1
2.324707909952849,171,41129,0.00532632227987051,-0.002130528911948204,0.01065264455974102,-0.12381591647863388,-0.21712645888328552,9.804784774780273,0.012099078419031432,9.807970165130179,449,1
2.3297270700568333,172,41134,0.003195793367922306,-0.004261057823896408,0.019174760207533836,-0.13099364936351776,-0.17764891684055328,9.768896102905273,0.019900782347572872,9.771389335359943,449,1
2.334751956979744,173,41139,0.0,-0.013848437927663326,0.0,-0.1435546875,-0.14534911513328552,9.810168266296387,0.013848437927663326,9.812295130428044,449,1
2.3397374040214345,174,41144,0.00532632227987051,-0.004261057823896408,-0.009587380103766918,-0.14893798530101776,-0.23148192465305328,9.801196098327637,0.011766230495011541,9.805060497660353,449,1
2.344718868029304,175,41149,0.015978965908288956,0.002130528911948204,0.02556634694337845,-0.16508789360523224,-0.15073241293430328,9.7796630859375,0.03022423863345617,9.782217762213874,449,1
2.349928225041367,176,41154,0.013848437927663326,0.002130528911948204,0.014913702383637428,-0.13996581733226776,-0.20277099311351776,9.831701278686523,0.02046306197197047,9.834788077991103,449,1
2.3548084530048072,177,41159,0.01810949668288231,-0.011717909015715122,0.019174760207533836,-0.11843261867761612,-0.23507079482078552,9.80837345123291,0.02886060794273617,9.811904724496417,449,1
2.3598436859901994,178,41164,-0.003195793367922306,0.006391586735844612,-0.003195793367922306,-0.14176024496555328,-0.20097656548023224,9.804784774780273,0.007828063074780196,9.807868883028972,449,1
2.3648604799527675,179,41169,0.0,-0.004261057823896408,0.01810949668288231,-0.16867674887180328,-0.20277099311351776,9.758130073547363,0.018604044825948848,9.761694036053767,449,1
2.369863354950212,180,41174,0.004261057823896408,-0.0,-0.008522115647792816,-0.09331054240465164,-0.21353758871555328,9.82631778717041,0.009528014950289695,9.829080649459536,449,1
2.3748433380387723,181,41179,-0.011717909015715122,-0.002130528911948204,0.012783173471689224,-0.14534911513328552,-0.18123778700828552,9.802990913391113,0.017471636132672982,9.805743436819995,449,1
2.379851663019508,182,41184,0.019174760207533836,-0.01065264455974102,0.00532632227987051,-0.13458251953125,-0.22430419921875,9.765307426452637,0.02257254912856871,9.76881026335764,449,1
2.384768606047146,183,41189,0.006391586735844612,0.003195793367922306,0.008522115647792816,-0.179443359375,-0.19379882514476776,9.81734561920166,0.011121687433417474,9.820897765006482,449,1
2.3897696130443364,184,41194,0.007456851191818714,0.004261057823896408,0.003195793367922306,-0.10228271037340164,-0.16508789360523224,9.759923934936523,0.009163751345708435,9.761855918891815,449,1
2.394770817947574,185,41199,0.015978965908288956,-0.009587380103766918,0.008522115647792816,-0.12740477919578552,-0.24583740532398224,9.810168266296387,0.02049077021165192,9.814075066997756,449,1
2.399740283959545,186,41204,-0.007456851191818714,0.011717909015715122,-0.014913702383637428,-0.15073241293430328,-0.20097656548023224,9.8514404296875,0.020379709030926292,9.854643087390972,449,1
2.404785127029754,187,41209,0.002130528911948204,0.009587380103766918,-0.009587380103766918,-0.09869384765625,-0.2530151307582855,9.829907417297363,0.01372497242084146,9.833658371358828,449,1
2.409740756964311,188,41214,-0.006391586735844612,-0.001065264455974102,-0.020240023732185364,-0.13099364936351776,-0.18303222954273224,9.8514404296875,0.021251958263708626,9.854011298598474,449,1
2.414901194977574,189,41219,0.009587380103766918,0.008522115647792816,-0.011717909015715122,-0.11843261867761612,-0.21174316108226776,9.741979598999023,0.017373937494679744,9.745000151808368,449,1
2.4197248079581186,190,41224,-0.002130528911948204,0.011717909015715122,-0.013848437927663326,-0.17406006157398224,-0.15432128310203552,9.777868270874023,0.018265480507820456,9.780634942886804,449,1
2.424806509981863,191,41229,0.0,-0.007456851191818714,-0.012783173471689224,-0.15432128310203552,-0.251220703125,9.768896102905273,0.01479912678857193,9.77334425718519,449,1
2.4297654579859227,192,41234,0.011717909015715122,-0.003195793367922306,0.004261057823896408,-0.12202148139476776,-0.20456542074680328,9.85323429107666,0.012871639395571286,9.856112938077366,449,1
2.4347529920050874,193,41239,0.004261057823896408,-0.0,-0.004261057823896408,-0.1614990234375,-0.16508789360523224,9.810168266296387,0.006026045764610287,9.812886291007093,449,1
2.4397547569824383,194,41244,-0.006391586735844612,0.01065264455974102,-0.020240023732185364,-0.14893798530101776,-0.20815429091453552,9.77069091796875,0.02374846895691239,9.77404275347559,449,1
2.444678872008808,195,41249,-0.002130528911948204,0.002130528911948204,-0.015978965908288956,-0.14714355766773224,-0.20994873344898224,9.79940128326416,0.016260555291488513,9.802754470437337,449,1
2.4498034700518474,196,41254,-0.009587380103766918,-0.01065264455974102,-0.01065264455974102,-0.21174316108226776,-0.24404296278953552,9.797607421875,0.017857086254102757,9.802933404197557,449,1
2.4547362140147015,197,41259,0.006391586735844612,-0.001065264455974102,-0.001065264455974102,-0.12022704631090164,-0.20456542074680328,9.77248477935791,0.006566731129271883,9.775364971028548,449,1
2.459832789027132,198,41264,-0.009587380103766918,-0.003195793367922306,0.007456851191818714,-0.14714355766773224,-0.19020995497703552,9.7796630859375,0.012559282710469183,9.78261933880615,449,1
2.4647390709724277,199,41269,-0.004261057823896408,-0.015978965908288956,0.020240023732185364,-0.08792724460363388,-0.20456542074680328,9.838879585266113,0.026136995350580682,9.841398767709558,449,1
2.4697870990494266,200,41274,0.006391586735844612,-0.0,0.007456851191818714,-0.15073241293430328,-0.27813720703125,9.802990913391113,0.009821253010627156,9.808094178497313,449,1
2.4747988110175356,201,41279,0.023435818031430244,-0.009587380103766918,0.014913702383637428,-0.14534911513328552,-0.26019287109375,9.811963081359863,0.029386628640320916,9.816488486490828,449,1
2.479813819983974,202,41284,0.001065264455974102,-0.004261057823896408,-0.001065264455974102,-0.09689941257238388,-0.15791015326976776,9.768896102905273,0.004519534323457716,9.770652802245118,449,1
2.4847241040552035,203,41289,0.022370554506778717,-0.004261057823896408,0.001065264455974102,-0.1614990234375,-0.15791015326976776,9.804784774780273,0.022797655824240093,9.807386095736213,449,1
2.4897637109970674,204,41294,-0.002130528911948204,-0.011717909015715122,0.02876213937997818,-0.1256103515625,-0.22789306938648224,9.78863525390625,0.03113051889799649,9.792093409762304,449,1
2.494791007018648,205,41299,-0.00532632227987051,-0.01065264455974102,0.001065264455974102,-0.1256103515625,-0.21892090141773224,9.76171875,0.011957563861689668,9.764981171287468,449,1
2.4996960279531777,206,41304,0.020240023732185364,0.007456851191818714,-0.027696875855326653,-0.12202148139476776,-0.20277099311351776,9.79940128326416,0.035105272004668064,9.802258455478986,449,1
2.504858931992203,207,41309,-0.015978965908288956,-0.004261057823896408,-0.001065264455974102,-0.13637694716453552,-0.21174316108226776,9.802990913391113,0.016571624954663054,9.80622581251379,449,1
2.5097211230313405,208,41314,0.003195793367922306,0.015978965908288956,-0.011717909015715122,-0.10587158054113388,-0.23865966498851776,9.82452392578125,0.020071119511609076,9.827992551661145,449,1
2.5147731399629265,209,41319,0.007456851191818714,0.002130528911948204,-0.017044231295585632,-0.15073241293430328,-0.21712645888328552,9.79042911529541,0.0187256402720707,9.793996447879703,449,1
2.5197531420271844,210,41324,-0.013848437927663326,-0.001065264455974102,-0.001065264455974102,-0.16508789360523224,-0.22250975668430328,9.794018745422363,0.01393014033521083,9.797936914989775,449,1
2.5246948649873957,211,41329,-0.002130528911948204,-0.015978965908288956,-0.006391586735844612,-0.12022704631090164,-0.17764891684055328,9.794018745422363,0.0173412481080438,9.796367534244716,449,1
2.5297884589526802,212,41334,-0.011717909015715122,0.006391586735844612,-0.014913702383637428,-0.16329345107078552,-0.19200439751148224,9.813756942749023,0.020014502029531367,9.8169932143799,449,1
2.5347342409659177,213,41339,-0.008522115647792816,-0.013848437927663326,0.00532632227987051,-0.09510497748851776,-0.19020995497703552,9.792223930358887,0.017110680792409877,9.794532877376476,449,1
2.5397472749464214,214,41344,0.0,-0.014913702383637428,-0.009587380103766918,-0.107666015625,-0.19379882514476776,9.794018745422363,0.017729534005207763,9.796527606311978,449,1
2.5447338729863986,215,41349,-0.001065264455974102,0.002130528911948204,-0.01810949668288231,-0.11484374850988388,-0.19379882514476776,9.71865177154541,0.01826548143118966,9.721262229142985,449,1
2.5497266000602394,216,41354,-0.02556634694337845,-0.004261057823896408,-0.013848437927663326,-0.14893798530101776,-0.15432128310203552,9.768896102905273,0.029386628640320916,9.771250106882006,449,1
2.554609328042716,217,41359,0.004261057823896408,0.001065264455974102,0.01065264455974102,-0.12381591647863388,-0.22789306938648224,9.83349609375,0.011522596853831628,9.836915728928673,449,1
2.5597276650369167,218,41364,-0.002130528911948204,-0.009587380103766918,-0.004261057823896408,-0.10587158054113388,-0.19200439751148224,9.802990913391113,0.010705775286140735,9.80544263805866,449,1
2.5647512009600177,219,41369,-0.002130528911948204,-0.002130528911948204,-0.006391586735844612,-0.16867674887180328,-0.19559325277805328,9.810168266296387,0.0070661650059363305,9.813567647863387,449,1
2.5698044300079346,220,41374,-0.001065264455974102,0.008522115647792816,-0.022370554506778717,-0.1435546875,-0.21353758871555328,9.794018745422363,0.023962532262185365,9.79739809519764,449,1
2.574783065007068,221,41379,0.001065264455974102,-0.009587380103766918,-0.02130528911948204,-0.15252685546875,-0.24942626059055328,9.85323429107666,0.02338734679436698,9.857570892261458,449,1
2.5797803959576413,222,41384,0.00532632227987051,-0.006391586735844612,-0.009587380103766918,-0.16688232123851776,-0.21174316108226776,9.838879585266113,0.012694091038155332,9.842572649910863,449,1
2.5847839600173756,223,41389,-0.015978965908288956,0.012783173471689224,-0.012783173471689224,-0.12919922173023224,-0.17406006157398224,9.79940128326416,0.02412771020036628,9.801798552019426,449,1
2.589761139010079,224,41394,-0.011717909015715122,-0.013848437927663326,-0.003195793367922306,-0.1614990234375,-0.24404296278953552,9.794018745422363,0.018420144407343228,9.798389770158309,449,1
2.594779844977893,225,41399,0.006391586735844612,-0.001065264455974102,-0.012783173471689224,-0.10946045070886612,-0.22609862685203552,9.786840438842773,0.014331667501386073,9.790063735987728,449,1
2.5997671709628776,226,41404,-0.003195793367922306,0.003195793367922306,-0.007456851191818714,-0.20994873344898224,-0.19200439751148224,9.84426212310791,0.008719565367484814,9.84837250045903,449,1
2.604748919024132,227,41409,-0.002130528911948204,0.00532632227987051,-0.01065264455974102,-0.09331054240465164,-0.18303222954273224,9.774279594421387,0.012099078419031432,9.776438474429098,449,1
2.6097842160379514,228,41414,-0.009587380103766918,-0.008522115647792816,-0.00532632227987051,-0.18662108480930328,-0.17406006157398224,9.77248477935791,0.013889349207126514,9.775816236873142,449,1
2.6147492680465803,229,41419,-0.022370554506778717,-0.002130528911948204,-0.015978965908288956,-0.08254394680261612,-0.14893798530101776,9.77248477935791,0.02757368698385592,9.773968221219123,449,1
2.619762956048362,230,41424,0.01065264455974102,0.004261057823896408,-0.023435818031430244,-0.16688232123851776,-0.24045409262180328,9.802990913391113,0.026093543582600652,9.80735941667426,449,1
2.624744336004369,231,41429,0.012783173471689224,-0.008522115647792816,-0.006391586735844612,-0.17226561903953552,-0.21353758871555328,9.858617782592773,0.016639962744053216,9.862434705920844,449,1
2.62976725702174,232,41434,0.0,-0.008522115647792816,-0.001065264455974102,-0.18841552734375,-0.22789306938648224,9.688146591186523,0.008588436614164243,9.692658047942148,449,1
2.6347305489471182,233,41439,-0.009587380103766918,-0.01065264455974102,-0.009587380103766918,-0.10407714545726776,-0.17047119140625,9.811963081359863,0.01724281156379062,9.81399571985208,449,1
2.6397685239790007,234,41444,0.004261057823896408,-0.008522115647792816,-0.008522115647792816,-0.17226561903953552,-0.19559325277805328,9.794018745422363,0.012783173471689224,9.797486175020612,449,1
2.6447301090229303,235,41449,-0.011717909015715122,-0.00532632227987051,-0.012783173471689224,-0.13817138969898224,-0.20815429091453552,9.78145694732666,0.01814080000267138,9.784647134882405,449,1
2.649747587973252,236,41454,0.0,-0.001065264455974102,0.007456851191818714,-0.15970458090305328,-0.17585448920726776,9.741979598999023,0.0075325572057628595,9.744875415409318,449,1
2.6546165470499545,237,41459,0.003195793367922306,-0.011717909015715122,-0.02130528911948204,-0.13099364936351776,-0.2691650390625,9.786840438842773,0.02452422947649434,9.7914174116823,449,1
2.659781338996254,238,41464,0.0,0.002130528911948204,0.007456851191818714,-0.16688232123851776,-0.22071532905101776,9.82631778717041,0.007755242300636091,9.830212928522029,449,1
2.6648402500431985,239,41469,-0.003195793367922306,-0.008522115647792816,-0.006391586735844612,-0.13278807699680328,-0.15073241293430328,9.813756942749023,0.011121687433417474,9.815812664525346,449,1
2.669779654010199,240,41474,-0.015978965908288956,-0.009587380103766918,-0.00532632227987051,-0.16688232123851776,-0.22071532905101776,9.797607421875,0.019380787336468336,9.80151397279013,449,1
2.6748386539984494,241,41479,-0.00532632227987051,0.006391586735844612,0.006391586735844612,-0.15791015326976776,-0.21174316108226776,9.819140434265137,0.010491638148196617,9.822692586587007,449,1
2.6799522070214152,242,41484,0.002130528911948204,0.004261057823896408,-0.03515372797846794,-0.1435546875,-0.17764891684055328,9.756335258483887,0.03547506670899092,9.75900839029733,449,1
2.684855169034563,243,41489,0.015978965908288956,0.002130528911948204,-0.01065264455974102,-0.1435546875,-0.20277099311351776,9.89809513092041,0.019322146388512013,9.90121261486197,449,1
2.68981731205713,244,41494,-0.015978965908288956,-0.01065264455974102,-0.008522115647792816,-0.12919922173023224,-0.20635986328125,9.804784774780273,0.021010298492139416,9.807807161227846,449,1
2.6948566120117903,245,41499,-0.009587380103766918,-0.0,-0.007456851191818714,-0.15073241293430328,-0.21533203125,9.811963081359863,0.012145883539332738,9.815483057596309,449,1
2.699826783966273,246,41504,0.006391586735844612,-0.001065264455974102,-0.01065264455974102,-0.16688232123851776,-0.21712645888328552,9.77248477935791,0.012468600782732863,9.776321003888485,449,1
2.704884123057127,247,41509,0.019174760207533836,-0.007456851191818714,-0.004261057823896408,-0.17585448920726776,-0.18841552734375,9.7796630859375,0.021010299200438343,9.783058585471476,449,1
2.7097955639474094,248,41514,0.007456851191818714,0.003195793367922306,-0.017044231295585632,-0.12919922173023224,-0.20815429091453552,9.725830078125,0.018876534253003254,9.728915219914438,449,1
2.7148913219571114,249,41519,-0.008522115647792816,-0.011717909015715122,-0.012783173471689224,-0.12381591647863388,-0.18123778700828552,9.7437744140625,0.01932214715869414,9.746246320956192,449,1
2.719835461000912,250,41524,-0.01065264455974102,0.008522115647792816,-0.024501081556081772,-0.10228271037340164,-0.26378172636032104,9.76171875,0.028042972179287726,9.76581770801117,449,1
2.7247791009722278,251,41529,0.011717909015715122,-0.00532632227987051,0.004261057823896408,-0.06998290866613388,-0.23686523735523224,9.774279594421387,0.013558602970373148,9.777399671594438,449,1
2.729820240056142,252,41534,-0.004261057823896408,-0.009587380103766918,0.0,-0.11663818359375,-0.23507079482078552,9.801196098327637,0.010491638148196617,9.804708445554239,449,1
2.734782207990065,253,41539,0.012783173471689224,0.017044231295585632,0.008522115647792816,-0.17226561903953552,-0.24224853515625,9.83528995513916,0.02294649863441207,9.839780907009551,449,1
2.7397443830268458,254,41544,-0.003195793367922306,0.012783173471689224,-0.014913702383637428,-0.16688232123851776,-0.19918212294578552,9.80837345123291,0.019900782347572872,9.811814969010255,449,1
2.744761712034233,255,41549,-0.00532632227987051,-0.008522115647792816,-0.001065264455974102,-0.1435546875,-0.13458251953125,9.87835693359375,0.010105985973894975,9.88031659970197,449,1
2.7497739050304517,0,41554,-0.001065264455974102,-0.002130528911948204,0.006391586735844612,-0.09331054240465164,-0.17047119140625,9.80837345123291,0.0068210206573234905,9.810298519580018,449,1
2.754901253967546,1,41559,0.004261057823896408,0.007456851191818714,0.001065264455974102,-0.12919922173023224,-0.22609862685203552,9.759923934936523,0.008654249351427237,9.763397372006677,449,1
2.7597020169487223,2,41564,-0.006391586735844612,0.004261057823896408,0.012783173471689224,-0.10946045070886612,-0.19559325277805328,9.794018745422363,0.014913702383637428,9.79658315416586,449,1
2.764767711982131,3,41569,0.00532632227987051,-0.002130528911948204,-0.012783173471689224,-0.13996581733226776,-0.20815429091453552,9.79042911529541,0.014011366331696253,9.793641860945892,449,1
2.769775960012339,4,41574,0.011717909015715122,-0.002130528911948204,-0.002130528911948204,-0.1256103515625,-0.14534911513328552,9.768896102905273,0.012099078419031432,9.770784789107143,449,1
2.774859989993274,5,41579,-0.002130528911948204,0.001065264455974102,-0.004261057823896408,-0.15611572563648224,-0.19559325277805328,9.78863525390625,0.004881655004647275,9.791833790171255,449,1
2.780105193029158,6,41584,0.003195793367922306,-0.008522115647792816,-0.020240023732185364,-0.16508789360523224,-0.179443359375,9.73659610748291,0.022192298462399927,9.739648745827036,449,1
2.7848970560589805,7,41589,0.0,-0.008522115647792816,-0.020240023732185364,-0.21174316108226776,-0.22609862685203552,9.78863525390625,0.021960988497646956,9.793535413186893,449,1
2.7898960730526596,8,41594,-0.008522115647792816,-0.0,-0.024501081556081772,-0.17047119140625,-0.2332763671875,9.749157905578613,0.025940883803990285,9.753438273680397,449,1
2.7947824880247936,9,41599,0.001065264455974102,0.006391586735844612,-0.006391586735844612,-0.1256103515625,-0.22250975668430328,9.749157905578613,0.00910162350159637,9.752505750838875,449,1
2.799794754013419,10,41604,-0.007456851191818714,0.001065264455974102,-0.011717909015715122,-0.12202148139476776,-0.19559325277805328,9.811963081359863,0.01393014033521083,9.814670930419574,449,1
2.8048722880193964,11,41609,-0.001065264455974102,0.004261057823896408,-0.002130528911948204,-0.12919922173023224,-0.24583740532398224,9.767102241516113,0.004881655004647275,9.771049824096753,449,1
2.8097930550575256,12,41614,0.012783173471689224,-0.009587380103766918,-0.007456851191818714,-0.06818847358226776,-0.20097656548023224,9.777868270874023,0.017633264330756602,9.78017122398001,449,1
2.8148341509513557,13,41619,0.009587380103766918,-0.011717909015715122,0.00532632227987051,-0.13099364936351776,-0.17764891684055328,9.767102241516113,0.016049827350589428,9.769595931770017,449,1
2.8197841480141506,14,41624,0.007456851191818714,0.003195793367922306,0.019174760207533836,-0.17226561903953552,-0.18482665717601776,9.828112602233887,0.02082040234874935,9.831359705498242,449,1
2.824519412009977,15,41629,-0.007456851191818714,0.001065264455974102,-0.004261057823896408,-0.1256103515625,-0.15611572563648224,9.750951766967773,0.008654249351427237,9.753010327172971,449,1
2.8296031380305067,16,41634,0.014913702383637428,-0.002130528911948204,0.024501081556081772,-0.14714355766773224,-0.17226561903953552,9.819140434265137,0.0287621395179519,9.82175368953461,449,1
2.8349044820060953,17,41639,-0.009587380103766918,-0.0,0.01810949668288231,-0.11125487834215164,-0.20097656548023224,9.81734561920166,0.020490771761000882,9.820032802118595,449,1
2.83988030301407,18,41644,0.009587380103766918,0.006391586735844612,0.02556634694337845,-0.18303222954273224,-0.15611572563648224,9.76351261138916,0.028042972992982165,9.766475896125355,449,1
2.8448884750250727,19,41649,0.01065264455974102,0.001065264455974102,0.011717909015715122,-0.10407714545726776,-0.14714355766773224,9.777868270874023,0.015872082918694682,9.77952919118986,449,1
2.849800928030163,20,41654,0.020240023732185364,-0.003195793367922306,-0.013848437927663326,-0.15073241293430328,-0.16329345107078552,9.740185737609863,0.024731576758594002,9.742720524299678,449,1
2.8548478400334716,21,41659,0.009587380103766918,-0.0,0.002130528911948204,-0.09869384765625,-0.22250975668430328,9.747363090515137,0.009821253010627156,9.750401955084811,449,1
2.8599030489567667,22,41664,0.008522115647792816,-0.004261057823896408,0.015978965908288956,-0.18841552734375,0.0897216796875,9.846056938171387,0.01860404311947284,9.848268254899592,449,0
2.864762346027419,23,41669,0.00532632227987051,-0.008522115647792816,0.009587380103766918,-0.19200439751148224,-0.09331054240465164,9.79940128326416,0.013889349207126514,9.801726279407463,449,1
2.869869700050913,24,41674,0.011717909015715122,0.002130528911948204,0.008522115647792816,-0.12022704631090164,-0.2619872987270355,9.704297065734863,0.014644965013941826,9.70857731222187,449,1
2.874901655013673,25,41679,0.008522115647792816,0.001065264455974102,0.011717909015715122,-0.07177734375,-0.3050537109375,9.731213569641113,0.014528270205915593,9.736258382541,449,0
2.8800268239574507,26,41684,-0.002130528911948204,0.01810949668288231,0.01065264455974102,-0.15432128310203552,-0.1256103515625,9.802990913391113,0.021118045829767312,9.805010141089435,449,1
2.8848243090324104,27,41689,0.006391586735844612,0.007456851191818714,0.004261057823896408,-0.2332763671875,-0.24404296278953552,9.858617782592773,0.010705775286140735,9.864396556020534,449,1
2.889867131016217,28,41694,0.004261057823896408,-0.003195793367922306,0.017044231295585632,-0.19379882514476776,-0.1973876953125,9.722241401672363,0.017857086254102757,9.72617590624807,449,1
2.8948752790456638,29,41699,-0.006391586735844612,-0.013848437927663326,0.01065264455974102,-0.10407714545726776,-0.21174316108226776,9.79042911529541,0.018604043919383466,9.793271643332258,449,1
2.89986163796857,30,41704,-0.012783173471689224,-0.013848437927663326,-0.001065264455974102,-0.20815429091453552,-0.20815429091453552,9.740185737609863,0.018876534253003254,9.74463311883987,449,1
2.904873662046157,31,41709,-0.002130528911948204,-0.015978965908288956,0.02556634694337845,-0.15252685546875,-0.17226561903953552,9.82452392578125,0.03022423863345617,9.827217828734158,449,1
2.9098345190286636,32,41714,-0.009587380103766918,-0.030892670154571533,0.013848437927663326,-0.16867674887180328,-0.24942626059055328,9.802990913391113,0.035185993798237454,9.807614192713276,449,1
2.914809126057662,33,41719,-0.002130528911948204,-0.023435818031430244,0.001065264455974102,-0.15791015326976776,-0.22789306938648224,9.720446586608887,0.02355655977871387,9.724399863780613,449,1
2.9198227289598435,34,41724,-0.007456851191818714,0.003195793367922306,-0.006391586735844612,-0.13099364936351776,-0.27454832196235657,9.795812606811523,0.010328122092094437,9.800534717301577,449,1
2.924861166975461,35,41729,-0.002130528911948204,-0.011717909015715122,-0.01810949668288231,-0.07536620646715164,-0.22789306938648224,9.776074409484863,0.02167492595725647,9.7790207166125,449,1
2.92990937596187,36,41734,0.003195793367922306,0.008522115647792816,0.013848437927663326,-0.13637694716453552,-0.24045409262180328,9.84426212310791,0.016571625852678292,9.848142646754948,449,1
2.9348470979603007,37,41739,-0.008522115647792816,-0.003195793367922306,0.013848437927663326,-0.16508789360523224,-0.17406006157398224,9.740185737609863,0.016571625852678292,9.743139592594819,449,1
2.9398241890594363,38,41744,-0.004261057823896408,0.008522115647792816,0.007456851191818714,-0.19379882514476776,-0.532946765422821,9.80837345123291,0.012099078419031432,9.824753431931649,449,0
2.9448118039872497,39,41749,0.011717909015715122,-0.01065264455974102,0.013848437927663326,-0.2583984434604645,-0.11663818359375,9.765307426452637,0.0210372873929388,9.769421853650597,449,1
2.9497289420105517,40,41754,-0.01810949668288231,-0.002130528911948204,-0.012783173471689224,-0.2332763671875,-0.02332763560116291,9.702502250671387,0.02226886947196179,9.705334201682819,449,0
2.9549779830267653,41,41759,-0.013848437927663326,-0.004261057823896408,-0.013848437927663326,-0.15432128310203552,-0.33555907011032104,9.776074409484863,0.02004283113363172,9.783048901428245,449,1
2.9597456350456923,42,41764,-0.008522115647792816,0.00532632227987051,-0.017044231295585632,-0.13637694716453552,-0.19020995497703552,9.758130073547363,0.019786409088079143,9.760936483297069,449,1
2.9647799839731306,43,41769,0.012783173471689224,-0.017044231295585632,0.02130528911948204,-0.13458251953125,-0.07895507663488388,9.7078857421875,0.030130228823051438,9.70913960874274,449,0
2.9698426510440186,44,41774,-0.003195793367922306,-0.008522115647792816,0.015978965908288956,-0.18662108480930328,-0.2763427793979645,9.741979598999023,0.018389314882916983,9.747684815808006,449,1
2.9748263020301238,45,41779,0.012783173471689224,-0.023435818031430244,0.03515372797846794,-0.13099364936351776,-0.19379882514476776,9.84426212310791,0.04414104305058649,9.84704087882538,449,1
2.980109037947841,46,41784,0.00532632227987051,-0.00532632227987051,0.017044231295585632,-0.19200439751148224,-0.21892090141773224,9.7437744140625,0.018634517394220614,9.748124531512731,449,1
2.984777108998969,47,41789,0.019174760207533836,0.00532632227987051,0.00532632227987051,-0.13817138969898224,-0.24942626059055328,9.767102241516113,0.020601234115327,9.771263530814867,449,1
2.989733070950024,48,41794,0.001065264455974102,-0.007456851191818714,0.023435818031430244,-0.16867674887180328,-0.12022704631090164,9.80837345123291,0.024616599782675126,9.810560440011834,449,1
2.9947515970561653,49,41799,0.008522115647792816,-0.014913702383637428,0.022370554506778717,-0.15073241293430328,-0.2691650390625,9.804784774780273,0.028204373470134474,9.809636820918783,449,1
2.9998751810053363,50,41804,0.004261057823896408,-0.0,-0.002130528911948204,-0.18662108480930328,-0.09869384765625,9.828112602233887,0.004764007475144848,9.830379709199901,449,1
3.004961992963217,51,41809,-0.006391586735844612,0.008522115647792816,0.007456851191818714,-0.11484374850988388,-0.16867674887180328,9.75454044342041,0.013003209827312182,9.756674648388467,449,1
3.009756522020325,52,41814,0.01065264455974102,-0.004261057823896408,0.002130528911948204,-0.20097656548023224,-0.20456542074680328,9.75454044342041,0.011669387444909692,9.758754933574364,449,1
3.014855485991575,53,41819,0.003195793367922306,-0.012783173471689224,-0.001065264455974102,-0.06998290866613388,-0.1614990234375,9.80837345123291,0.013219584245312601,9.80995256364307,449,1
3.0198002220131457,54,41824,-0.011717909015715122,0.017044231295585632,-0.002130528911948204,-0.07536620646715164,-0.18662108480930328,9.828112602233887,0.02079313265486097,9.830173183447034,449,1
3.0248291110619903,55,41829,-0.01065264455974102,-0.003195793367922306,0.026631612330675125,-0.13817138969898224,-0.16329345107078552,9.77248477935791,0.028860608217742112,9.77482556605876,449,1
3.029829847975634,56,41834,0.004261057823896408,0.01065264455974102,0.003195793367922306,-0.14714355766773224,-0.11663818359375,9.78145694732666,0.011910018687862121,9.783258951128717,449,1
3.034827832947485,57,41839,0.00532632227987051,-0.008522115647792816,0.015978965908288956,-0.09510497748851776,-0.24224853515625,9.75274658203125,0.018876533464639658,9.756218283886984,449,1
3.0397988229524344,58,41844,0.013848437927663326,0.002130528911948204,0.003195793367922306,-0.13099364936351776,-0.14893798530101776,9.82452392578125,0.014371203210985763,9.826525949077187,449,1
3.0448340689763427,59,41849,0.006391586735844612,0.01065264455974102,0.012783173471689224,-0.14534911513328552,-0.22609862685203552,9.76171875,0.017825283760021994,9.765418573130184,449,1
3.049757575034164,60,41854,0.012783173471689224,-0.003195793367922306,0.008522115647792816,-0.23686523735523224,-0.18841552734375,9.80837345123291,0.01569232533349059,9.813042102756015,449,1
3.0548770199529827,61,41859,0.003195793367922306,-0.006391586735844612,-0.011717909015715122,-0.15252685546875,-0.18303222954273224,9.797607421875,0.01372497242084146,9.800503886631068,449,1
3.059776030946523,62,41864,-0.01065264455974102,0.009587380103766918,-0.029827404767274857,-0.13817138969898224,-0.20815429091453552,9.795812606811523,0.03309185350688499,9.79899812070219,449,1
3.0648708830121905,63,41869,-0.003195793367922306,-0.009587380103766918,-0.00532632227987051,-0.16688232123851776,-0.21712645888328552,9.82631778717041,0.01142368861329855,9.830133003309301,449,1
3.0698245340026915,64,41874,0.00532632227987051,-0.001065264455974102,-0.02556634694337845,-0.13458251953125,-0.18482665717601776,9.811963081359863,0.02613699664114841,9.814626475711401,449,1
3.0748522729845718,65,41879,0.014913702383637428,0.006391586735844612,0.003195793367922306,-0.11843261867761612,-0.18303222954273224,9.774279594421387,0.016537351512258356,9.776710524104749,449,1
3.079981165006757,66,41884,0.01065264455974102,-0.015978965908288956,0.022370554506778717,-0.107666015625,-0.2799316346645355,9.777868270874023,0.029483010303481532,9.782467051494296,449,1
3.0848131390521303,67,41889,-0.001065264455974102,-0.01810949668288231,-0.007456851191818714,-0.179443359375,-0.13458251953125,9.797607421875,0.019613599571863788,9.800174670227426,449,1
