host_t_s,seq,t_ms,gyro_x,gyro_y,gyro_z,acc_x,acc_y,acc_z,gyro_norm,acc_norm,flags,used_for_fit
0.00040814897511154413,29,36579,0.015162481926381588,-0.0049864002503454685,0.016927167773246765,-0.012499839067459106,0.08497603982686996,9.806282043457031,0.023265727034591836,9.806658181518777,449,1
0.005366052966564894,30,36584,-0.006907415110617876,0.01101310271769762,-0.03528378903865814,0.035595208406448364,-0.041118934750556946,9.78297233581543,0.03760248108709694,9.783123504739502,449,1
0.010329204029403627,31,36589,-0.012720027007162571,0.00434733834117651,0.004361686296761036,-0.05555425584316254,0.034748271107673645,9.807918548583984,0.014132329781991415,9.808137436503683,449,1
0.015338288969360292,32,36594,0.006593856029212475,-0.0007888918044045568,0.013771895319223404,0.03434568643569946,0.008075326681137085,9.819700241088867,0.015289420796638632,9.819763625562405,449,1
0.020384342060424387,33,36599,0.002914964687079191,-0.002514241961762309,-0.01917303539812565,-0.005107372999191284,0.04938073456287384,9.821247100830078,0.019555656934682204,9.821372569950094,449,1
0.025409138994291425,34,36604,0.0022393439430743456,0.0012139445170760155,0.007402043789625168,-0.036417797207832336,0.005214378237724304,9.76694393157959,0.007828063288544056,9.767013218395542,449,1
0.030362974968738854,35,36609,0.00029577381792478263,0.004665191285312176,0.020148539915680885,0.021048136055469513,0.021424442529678345,9.769369125366211,0.02068369291528252,9.76941529153243,449,1
0.03532910603098571,36,36614,0.02454650215804577,-0.00846005417406559,0.003006533719599247,-0.01433427631855011,0.0005830079317092896,9.80440902709961,0.026136995424687923,9.804419522952296,449,1
0.04036978096701205,37,36619,0.012674320489168167,-0.011866641230881214,-0.007407291792333126,0.0009940266609191895,0.035349056124687195,9.747843742370605,0.018876534259798957,9.747907886799695,449,1
0.0453793240012601,38,36624,-0.021680055186152458,0.01759742945432663,-0.025608845055103302,-0.03778553009033203,-0.03547459840774536,9.796499252319336,0.03788808864710527,9.796636351019144,449,1
0.050446284003555775,39,36629,0.002116417745128274,-0.011737190186977386,-0.0008616709383204579,0.02360048145055771,0.04937651753425598,9.820826530456543,0.011957563897513497,9.82097901252862,449,1
0.0553856190526858,40,36634,-0.006469525396823883,0.004154565744102001,-0.005316345486789942,0.0074297040700912476,0.024225950241088867,9.819770812988281,0.00934765771287796,9.819803507035372,449,1
0.06037982401903719,41,36639,0.005419818684458733,-0.0030680436175316572,0.006375567521899939,0.018140241503715515,0.040299221873283386,9.815702438354492,0.008912642000988824,9.815801926178203,449,1
0.0653903849888593,42,36644,0.00551263801753521,0.0023851029109209776,0.012658613733947277,0.016667112708091736,0.0012607276439666748,9.838045120239258,0.01401136665259092,9.838059319293805,449,1
0.07035154500044882,43,36649,0.011718682013452053,-0.013847382739186287,0.00010549701983109117,-0.0638551265001297,-0.008058324456214905,9.731712341308594,0.01814080060193354,9.731925169654327,449,1
0.0754103020299226,44,36654,-0.012794592417776585,-0.019190361723303795,-0.0004940667422488332,-0.05898110568523407,0.008053123950958252,9.819273948669434,0.02306980017585904,9.8194543892546,449,1
0.08039044903125614,45,36659,-0.012907538563013077,0.0062216599471867085,-0.00846018735319376,0.005138024687767029,0.010985493659973145,9.785965919494629,0.016639963170188708,9.785973434353835,449,1
0.08535289706196636,46,36664,0.0266147181391716,-0.010675729252398014,-0.001241783844307065,-0.004099637269973755,0.035744816064834595,9.767655372619629,0.028702899571542217,9.767721636961527,449,1
0.09037174796685576,47,36669,0.00010982371168211102,-0.004110999405384064,0.007539818994700909,-0.048938050866127014,0.09499173611402512,9.768921852111816,0.008588436867764027,9.769506257504537,449,1
0.09545211400836706,48,36674,0.007159029133617878,0.0038541259709745646,-0.020428260788321495,0.04104860872030258,0.014604300260543823,9.787162780761719,0.021986810227311367,9.787259758021722,449,1
0.10039030900225043,49,36679,0.010774428024888039,0.012949573807418346,0.008107716217637062,0.0251321941614151,0.04722315073013306,9.802896499633789,0.01869531554488993,9.803042458118838,449,1
0.10538483306299895,50,36684,0.01486655231565237,-0.008586539886891842,-0.00324268895201385,0.025866933166980743,0.05540481209754944,9.852982521057129,0.01747163634645382,9.853172248148935,449,1
0.1103646190604195,51,36689,-0.0030548954382538795,-0.0008727471577003598,0.009652547538280487,-0.03193531930446625,0.002846464514732361,9.827956199645996,0.01016197558148528,9.828008497612295,449,1
0.11543670401442796,52,36694,0.006015411112457514,0.006942859850823879,-0.025801291689276695,-0.014760240912437439,0.03768406808376312,9.77495288848877,0.027387864586257873,9.77503667133142,449,1
0.1203822890529409,53,36699,-0.002175695262849331,-0.009649094194173813,-0.0029717753641307354,0.0037153661251068115,-0.01362861692905426,9.81160831451416,0.010328122649333622,9.811618483236506,449,1
0.1253815779928118,54,36704,0.019062723964452744,0.005173240788280964,-0.007841932587325573,0.02714010328054428,0.024187177419662476,9.817688941955566,0.021251959248563733,9.817756249049689,449,1
0.1303868630202487,55,36709,0.022259892895817757,-0.006542790215462446,-0.007654266431927681,-0.021805807948112488,0.03786464035511017,9.784027099609375,0.024431511008281167,9.784124667548964,449,1
0.13538463902659714,56,36714,0.004260913003236055,-0.00213072681799531,-1.9769468053709716e-05,-0.016128763556480408,0.002377331256866455,9.804398536682129,0.004764007475428397,9.804412091237927,449,1
0.1404243550496176,57,36719,0.01812565140426159,-0.017022158950567245,0.0011407798156142235,0.04822058230638504,0.04869064688682556,9.786375999450684,0.024891655484416852,9.786615922078305,449,1
0.14536663505714387,58,36724,-0.005339477676898241,-0.012801148928701878,-0.000731156556867063,0.0018788129091262817,0.09577428549528122,9.80765151977539,0.01388934936084299,9.808119319066863,449,1
0.15040323801804334,59,36729,0.004198825918138027,-0.0043460894376039505,-0.004236887209117413,0.04009658843278885,0.006783157587051392,9.844772338867188,0.007380368941540999,9.844856329665523,449,1
0.1553723330143839,60,36734,0.00856925081461668,-0.008457712829113007,0.0032405322417616844,0.008463993668556213,0.008831843733787537,9.768010139465332,0.012468601165866537,9.768017799192942,449,1
0.1604084699647501,61,36739,0.008443359285593033,-0.0011728752870112658,-0.005428168922662735,-0.0233677476644516,0.06689324975013733,9.799623489379883,0.010105986855198921,9.799879657021254,449,1
0.1653998770052567,62,36744,0.0007818544982001185,0.016656991094350815,-0.01952550560235977,-0.005358055233955383,-0.033505722880363464,9.804959297180176,0.025677071830748556,9.805018009243105,449,1
0.17034957697615027,63,36749,-0.011855178512632847,-0.012970732524991035,-0.009157052263617516,-0.0021508634090423584,0.057488858699798584,9.777961730957031,0.019815064116976117,9.77813096696645,449,1
0.1753762559965253,64,36754,0.0022399681620299816,-0.003046260215342045,0.007487304043024778,0.04994414746761322,-0.007033631205558777,9.782079696655273,0.008387900839851347,9.782209723858385,449,1
0.18040747905615717,65,36759,-0.002193324500694871,0.004175256472080946,-0.004313808400183916,-0.008534491062164307,0.02447967231273651,9.832565307617188,0.006391586805050804,9.832599484391261,449,1
0.185378159978427,66,36764,-0.011529766023159027,0.0023876004852354527,0.012908211909234524,0.001473352313041687,-0.007062450051307678,9.78099536895752,0.017471636309160998,9.780998029676532,449,1
0.19029880303423852,67,36769,0.007488812319934368,-0.010608973912894726,0.0022338253911584616,0.014448225498199463,0.029391691088676453,9.808795928955078,0.013176593388500149,9.80885060537731,449,1
0.19539356406312436,68,36774,-4.445830199983902e-05,-0.016039710491895676,-0.0028750847559422255,0.054204799234867096,0.06925049424171448,9.827159881591797,0.016295410444609745,9.827553364372035,449,1
0.20036890998017043,69,36779,0.013926045037806034,-0.007350812200456858,0.005271091125905514,0.01949276030063629,0.005601182579994202,9.785862922668457,0.016605829460131984,9.78588393974748,449,1
0.20538061205297709,70,36784,-0.00018766714492812753,0.00293937255628407,-0.01284318882972002,0.020516537129878998,0.014177754521369934,9.855680465698242,0.013176593994571075,9.85571201785873,449,1
0.21035613398998976,71,36789,0.005309994798153639,0.0010429556714370847,-0.001164251589216292,0.014556750655174255,0.006212338805198669,9.816437721252441,0.005535276239899337,9.816450480054941,449,1
0.2153271649731323,72,36794,0.004416287876665592,0.0023426287807524204,0.010544339194893837,-0.028220444917678833,0.03711289167404175,9.836191177368164,0.011669387184893965,9.83630167481534,449,1
0.22039843106176704,73,36799,0.00228708004578948,-0.005112417042255402,0.010724744759500027,-0.051984935998916626,-0.013728171586990356,9.807042121887207,0.012099078200681866,9.807189509575915,449,1
0.2253898869967088,74,36804,-0.009772613644599915,-0.0066446829587221146,-0.012510953471064568,0.043100371956825256,0.05084457993507385,9.804357528686523,0.01720987349818978,9.804584099475292,449,1
0.2303857880178839,75,36809,-0.006517261266708374,0.010480928234755993,-0.008639046922326088,-0.007422417402267456,0.016369551420211792,9.786042213439941,0.015065114762483373,9.786058719306885,449,1
0.23539386200718582,76,36814,-0.006655787583440542,-0.002491521881893277,-0.017967699095606804,-0.01367446780204773,0.029538065195083618,9.726634979248047,0.019322147924961754,9.726689442348656,449,1
0.24039762397296727,77,36819,-0.002287236275151372,0.006177468225359917,-0.010746059939265251,-0.027421340346336365,0.012425243854522705,9.768464088439941,0.012604378908616688,9.76851047825266,449,1
0.2453573290258646,78,36824,0.011608545668423176,-0.007606280501931906,-0.007476952392607927,0.03666207194328308,0.07990842312574387,9.732069969177246,0.01576447438677425,9.732467074106504,449,1
0.2504414770519361,79,36829,0.016949741169810295,-0.006520695053040981,-0.006511329673230648,0.03376258164644241,0.04137282073497772,9.779553413391113,0.01929276039896337,9.77969920741864,449,1
0.255437173997052,80,36834,0.0012679490027949214,0.000276939885225147,0.013828580267727375,0.00927966833114624,0.002768605947494507,9.82376480102539,0.01388934925022393,9.823769574012243,449,1
0.26038179302122444,81,36839,0.012969781644642353,-0.005071348510682583,0.01269861962646246,-0.037472814321517944,-0.017103001475334167,9.817666053771973,0.0188464519749496,9.817752465195849,449,1
0.26539845496881753,82,36844,-7.799952436471358e-05,-0.00010657537495717406,-0.005324684549123049,0.010687917470932007,-0.05338652431964874,9.797943115234375,0.0053263221629955984,9.798094388294464,449,1
0.2703797110589221,83,36849,-0.004354200325906277,-0.00012726607383228838,-0.006327222101390362,0.02117452770471573,0.05569139122962952,9.777655601501465,0.007681731357707953,9.777837130636488,449,1
0.2754634170560166,84,36854,-0.007438266184180975,-0.014888308942317963,0.0014725474175065756,0.008490011096000671,0.01066182553768158,9.769767761230469,0.01670802031616674,9.769777267839345,449,1
0.2804299630224705,85,36859,0.009507415816187859,0.006282326765358448,-0.005592973902821541,-0.016262248158454895,0.016550391912460327,9.79514217376709,0.012694090836538118,9.795169655524006,449,1
0.2853919130284339,86,36864,0.015838101506233215,-0.00871458649635315,-0.009647910483181477,-0.0006102174520492554,-0.005663052201271057,9.761253356933594,0.02049076996639342,9.761255018734678,449,1
0.2904276379849762,87,36869,0.013863957487046719,-0.009566174820065498,0.0010539739159867167,0.005638867616653442,0.0009032487869262695,9.820263862609863,0.016876962964534652,9.820265523088851,449,1
0.2953777010552585,88,36874,0.007377739995718002,0.0020224342588335276,-0.0054765138775110245,-0.001624777913093567,0.05461883544921875,9.813911437988281,0.009408160926891685,9.814063560511839,449,1
0.30036633904092014,89,36879,0.01386317703872919,-0.004240918904542923,0.0009473984828218818,-0.04146021604537964,0.014652281999588013,9.790164947509766,0.014528270187717152,9.790263701164092,449,1
0.30549957999028265,90,36884,-0.00850607082247734,0.0032177173998206854,0.0011257909936830401,-0.03272472321987152,0.008945614099502563,9.773996353149414,0.009163752040707287,9.77405523019486,449,1
0.310370402992703,91,36889,0.019171766936779022,0.0063874972984194756,-0.0004086887347511947,-0.007061123847961426,0.06172408163547516,9.810257911682129,0.020211971593523528,9.810454628377094,449,1
0.31539910996798426,92,36894,-0.001158905797637999,0.0009373168577440083,-0.006395336706191301,0.010732844471931458,-0.0012865662574768066,9.800488471984863,0.006566731083664678,9.800494433379951,449,1
0.32039078895468265,93,36899,0.009664819575846195,-0.0030899830162525177,0.005248230416327715,-0.02185678482055664,0.027028381824493408,9.780654907226562,0.011423688326335599,9.780716674493837,449,1
0.3254317509708926,94,36904,0.0008319321204908192,-0.005645138211548328,-0.015883078798651695,-0.0308600515127182,0.06646345555782318,9.778203010559082,0.016876963251863955,9.778477583418123,449,1
0.3304019409697503,95,36909,0.00982159934937954,-0.008202088065445423,0.016004174947738647,0.0009693354368209839,0.024548694491386414,9.746265411376953,0.02049077056069098,9.74629637590686,449,1
0.3354188159573823,96,36914,-0.006265321746468544,-0.0051537989638745785,0.008719670586287975,-0.0038132071495056152,0.05408051609992981,9.787030220031738,0.011910019121738722,9.787180378974574,449,1
0.34041907195933163,97,36919,0.003011217573657632,-0.02049221843481064,-0.012421056628227234,0.020960353314876556,0.08231525123119354,9.76276683807373,0.02415121312517293,9.763136354245416,449,1
0.34537739399820566,98,36924,0.004383995197713375,0.009755357168614864,0.008265260607004166,0.02269652485847473,-0.059524595737457275,9.760194778442383,0.013516691173601408,9.760402677291154,449,1
0.3504404230043292,99,36929,0.004120982252061367,-0.0055177160538733006,-0.009540257044136524,0.005135670304298401,0.027132168412208557,9.785642623901367,0.011766230902084682,9.785681585479239,449,1
0.355458811041899,100,36934,0.0021619684994220734,-0.00315283564850688,0.0021626194939017296,-0.039749279618263245,0.045043572783470154,9.784146308898926,0.004392198025407427,9.784330734527515,449,1
0.36034909705631435,101,36939,-0.0043375082314014435,-0.007561309263110161,-0.005113079212605953,0.06817508488893509,-0.0030531585216522217,9.801477432250977,0.010105986070851964,9.801715003962407,449,1
0.3653951750602573,102,36944,-0.001048769918270409,-0.005303784739226103,0.0011871122987940907,0.034604258835315704,0.03713957965373993,9.837064743041992,0.0055352765523923745,9.83719571635668,449,1
0.37038994196336716,103,36949,-0.006388403940945864,-0.017039882019162178,0.00043464062036946416,0.03463606536388397,-0.0005000829696655273,9.83961296081543,0.018203246869955215,9.839673933914368,449,1
0.3754380940226838,104,36954,0.004198981914669275,-0.005411140620708466,-0.004215572029352188,-0.018738165497779846,0.00485268235206604,9.748743057250977,0.008042570451755916,9.74876227342073,449,1
0.38037806702777743,105,36959,0.006234433967620134,0.0029810662381350994,-0.010806913487613201,0.044051870703697205,0.062253862619400024,9.746674537658691,0.012827482291608155,9.746972896944353,449,1
0.3852939830394462,106,36964,0.0020995689556002617,-0.0032380959019064903,-0.002097128424793482,-0.017348840832710266,0.030078619718551636,9.843352317810059,0.004392197912132464,9.843413562285141,449,1
0.39042209601029754,107,36969,0.0011083597782999277,0.02455996349453926,0.0026889643631875515,-0.04637254774570465,0.03324010968208313,9.822175025939941,0.02473157491139104,9.822340737231345,449,1
0.3954580440185964,108,36974,0.021161044016480446,0.010455554351210594,-0.010109581053256989,-0.004151135683059692,0.028496697545051575,9.764211654663086,0.025677072063047108,9.764254120554057,449,1
0.4004303900292143,109,36979,-1.4195055882737506e-05,-0.00960677582770586,-0.0008731012931093574,0.008908882737159729,0.022000744938850403,9.79825496673584,0.009646380107140416,9.798283716760453,449,1
0.405472869053483,110,36984,0.015176833607256413,0.0035553243942558765,0.01782158575952053,-0.01818498969078064,-0.003363683819770813,9.78659439086914,0.023676687455695393,9.78661186415453,449,1
0.4103773890528828,111,36989,0.004311147145926952,-0.025497907772660255,0.003643973032012582,0.03766588121652603,0.04539132118225098,9.800954818725586,0.02611527962620652,9.801132304450684,449,1
0.4154542119940743,112,36994,-0.002380054909735918,0.0007243222207762301,-0.017029106616973877,0.03473171591758728,0.06423021852970123,9.845495223999023,0.01720987438144543,9.84576599452021,449,1
0.42039261595346034,113,36999,0.006281701847910881,-0.00015014207747299224,-0.007548158057034016,0.02642717957496643,0.04654069244861603,9.768787384033203,0.009821253015956896,9.768933994368073,449,1
0.425420026993379,114,37004,-0.010856018401682377,0.011440027505159378,-0.013922646641731262,0.011971816420555115,0.021282121539115906,9.762324333190918,0.021037287238781056,9.762354871622785,449,1
0.430441805976443,115,37009,0.0033361620735377073,-0.0019387349020689726,0.009580262936651707,-0.00022366642951965332,0.04690368473529816,9.787120819091797,0.010328122207681036,9.787233211340602,449,1
0.4353700460633263,116,37014,-0.01939157024025917,0.0028995522297918797,-0.01469226460903883,-0.01917591691017151,0.07489485293626785,9.84068775177002,0.024501082401767703,9.84099143291072,449,1
0.44042303797323257,117,37019,0.007315340451896191,0.001937174005433917,-0.009736262261867523,-0.017793983221054077,0.018703803420066833,9.813071250915527,0.012331328066609182,9.813105208528343,449,1
0.4454183620400727,118,37024,-0.005151654593646526,-0.01680557243525982,0.012133347801864147,0.007404506206512451,0.017013758420944214,9.818121910095215,0.021358486341733245,9.81813944371231,449,1
0.45044945797417313,119,37029,0.009695707820355892,-0.0009172505815513432,0.007335474714636803,0.04796859622001648,-0.025225430727005005,9.76990795135498,0.01219250950609195,9.770058274469399,449,1
0.4554571539629251,120,37034,0.001409908989444375,-0.010181736201047897,0.023626163601875305,0.04346799850463867,0.053141310811042786,9.829435348510742,0.025765310049926098,9.82967510838284,449,1
0.46040179301053286,121,37039,0.012046280317008495,-0.013399765826761723,0.0224691741168499,-0.011250317096710205,0.03578178584575653,9.769554138183594,0.02880156904026784,9.769626142526299,449,1
0.4654159309575334,122,37044,-0.008567689917981625,-0.002192799001932144,-0.0030273813754320145,-0.02818523347377777,-0.023849740624427795,9.839204788208008,0.00934765831563559,9.839274062745138,449,1
0.4704103789990768,123,37049,0.005575818009674549,-0.0028548927512019873,0.017024938017129898,-0.003966674208641052,0.02515988051891327,9.776840209960938,0.018140801349030632,9.77687338801117,449,1
0.4754542220616713,124,37054,-0.006420540157705545,-0.010692205280065536,-0.0018231237772852182,-0.04808269441127777,-0.0025333911180496216,9.828300476074219,0.012604378999977493,9.828418418625304,449,1
0.4803784639807418,125,37059,0.025877632200717926,-0.013423110358417034,0.02120143733918667,-0.019276559352874756,0.044251948595047,9.834122657775879,0.03604625757630513,9.834241113013034,449,1
0.48545814002864063,126,37064,0.012579159811139107,-0.0013440202455967665,-0.014010063372552395,0.010678187012672424,0.01299421489238739,9.796614646911621,0.01887653378344884,9.796629084199415,449,1
0.4903947999700904,127,37069,-0.012904416769742966,-0.01507936418056488,-0.00803388562053442,0.02479400485754013,0.023433417081832886,9.780043601989746,0.02141155095786282,9.780103103982778,449,1
0.4954424579627812,128,37074,-0.0041811964474618435,-0.009478261694312096,0.005578919779509306,-0.050353094935417175,0.018349483609199524,9.795605659484863,0.011766231103642819,9.795752261763779,449,1
0.500439055962488,129,37079,0.012749353423714638,0.00847590621560812,-0.0024875933304429054,0.060199253261089325,0.067633718252182,9.746330261230469,0.015510484179297323,9.74675083455582,449,1
0.5054137030383572,130,37084,-0.0029594229999929667,-0.013525471091270447,0.016297949478030205,-0.0017004609107971191,0.03298221528530121,9.808960914611816,0.021385034718749113,9.80901651249883,449,1
0.510350325028412,131,37089,-0.020393071696162224,-0.005535440985113382,-0.010246395133435726,-0.014175266027450562,-0.008171916007995605,9.815352439880371,0.023484188155756654,9.815366077607282,449,1
0.51547294203192,132,37094,0.011560965329408646,-0.0023449701257050037,-0.010778337717056274,-0.018294841051101685,0.02878604829311371,9.778772354125977,0.015978966430315683,9.778831836758616,449,1
0.5204033399932086,133,37099,0.0030548954382538795,0.0008727471577003598,-0.009652547538280487,0.01564018428325653,0.014213025569915771,9.767797470092773,0.01016197558148528,9.767820332203652,449,1
0.5254278790671378,134,37104,-0.009335973300039768,-0.004982810001820326,0.017285965383052826,-0.006975695490837097,0.01697993278503418,9.816537857055664,0.020268038686498423,9.816555020853903,449,1
0.530434419051744,135,37109,-0.029918119311332703,0.002006582682952285,-0.005995454266667366,0.027429930865764618,0.01919989287853241,9.837528228759766,0.030578844141895923,9.8375852061692,449,1
0.5354216169798747,136,37114,-0.008379866369068623,-0.006197222508490086,0.00983712263405323,-0.02072291076183319,0.049453482031822205,9.73531436920166,0.01433166804320369,9.735462030797503,449,1
0.5405849179951474,137,37119,0.004041733685880899,0.002896117977797985,-0.015035462565720081,0.03240980952978134,0.07786497473716736,9.809356689453125,0.015836295182083435,9.809719262596833,449,1
0.5454590240260586,138,37124,-0.003102007322013378,0.0011934100184589624,0.006415106356143951,0.07708690315485,0.04351964592933655,9.796825408935547,0.007224975187405238,9.7972253441158,449,1
0.5504422640660778,139,37129,0.0010353553807362914,-0.00962824746966362,-0.001953638158738613,-0.012540563941001892,0.0041708797216415405,9.80431079864502,0.009878856824389302,9.804319706048398,449,1
0.5554014269728214,140,37134,-0.011234304867684841,0.009182894602417946,0.033014122396707535,-0.051110416650772095,-0.0149850994348526,9.744230270385742,0.0360619943536681,9.744375833792388,449,1
0.5604116229806095,141,37139,0.010824037715792656,-0.006157401949167252,0.01168619841337204,-0.0054245442152023315,0.06150840222835541,9.799468994140625,0.0170774888257381,9.799663528731386,449,1
0.5654942949768156,142,37144,-0.018343113362789154,0.010333439335227013,-0.015922006219625473,-0.042967215180397034,0.027606040239334106,9.809673309326172,0.026396212955512068,9.809806252456994,449,1
0.5704541719751433,143,37149,0.003618833376094699,-0.014335677959024906,0.029004909098148346,-0.0019085854291915894,0.01834237575531006,9.794896125793457,0.032555988225527084,9.794913486117698,449,1
0.5754189250292256,144,37154,-0.0043083373457193375,0.006326986476778984,-0.003260301658883691,-0.029186397790908813,-0.007273390889167786,9.770679473876953,0.008319981698825054,9.770725772903027,449,1
0.5804081179667264,145,37159,0.011653629131615162,0.004173227585852146,-0.004516607150435448,0.0021124184131622314,0.11583223938941956,9.823400497436523,0.013176594422380599,9.824083616451443,449,1
0.5854496769607067,146,37164,0.003099665977060795,0.014782357960939407,-0.006734832189977169,-0.012308016419410706,0.031405121088027954,9.819916725158691,0.01653735168283754,9.819974656685735,449,1
0.5904116299934685,147,37169,-0.0029444473329931498,-0.009243951179087162,0.01727762632071972,0.0019366294145584106,0.0599646121263504,9.811956405639648,0.019815064339450027,9.812139828366384,449,1
0.5955687169916928,148,37174,0.004277137573808432,-0.006369616370648146,0.001130427815951407,0.03909459710121155,0.02874171733856201,9.776138305664062,0.007755242457949938,9.776258724343904,449,1
0.6004136119736359,149,37179,-0.011890592984855175,0.015743017196655273,-0.011862433515489101,-0.009817659854888916,-0.007778972387313843,9.745274543762207,0.023020558657319112,9.745282593755613,449,1
0.6054636350600049,150,37184,0.020161570981144905,-0.01182510331273079,-0.005386617034673691,0.004823222756385803,0.006966501474380493,9.764511108398438,0.02398619719469382,9.764514784752851,449,1
0.6104244940215722,151,37189,0.0010199113748967648,-0.01071461383253336,-0.0029972600750625134,0.001760050654411316,0.00947919487953186,9.80040454864502,0.01117258863247559,9.800409290943714,449,1
0.615333340014331,152,37194,-0.02258608676493168,-0.003490286646410823,-0.014517574571073055,-0.0013349354267120361,0.04963153600692749,9.833751678466797,0.027075328024860616,9.833877014950286,449,1
0.6203626750502735,153,37199,-0.0010050920536741614,0.01606118306517601,0.003955621737986803,0.024585090577602386,0.01417580246925354,9.765871047973633,0.016571624990431365,9.76591228230645,449,1
0.6254259090637788,154,37204,0.006157058756798506,-0.001385713811032474,-0.01604633778333664,-0.03441436588764191,0.012677624821662903,9.781126022338867,0.017242811010902262,9.781194780578963,449,1
0.6304477630183101,155,37209,-0.004149996675550938,-0.009435631334781647,0.007708793971687555,-0.023991599678993225,0.01938559114933014,9.757503509521484,0.012871639972859849,9.757552261521505,449,1
0.6354596730088815,156,37214,-0.005404375027865171,0.004154409747570753,-0.005331945139914751,0.008517071604728699,0.005315512418746948,9.771669387817383,0.008654249174110028,9.771674545337065,449,1
0.6404392069671303,157,37219,0.006672948598861694,-0.008137675002217293,0.01924578659236431,0.003974989056587219,0.008259326219558716,9.829115867614746,0.021935138454169657,9.829120141498098,449,1
0.6454229600494727,158,37224,-0.0033363180700689554,0.0030037860851734877,-0.009601578116416931,-0.043704062700271606,0.03377698361873627,9.759300231933594,0.010599247682538936,9.759456539517863,449,1
0.6504677400225773,159,37229,0.0018030146602541208,-0.0025780312716960907,-0.022352246567606926,0.041027866303920746,-0.02310718595981598,9.78612232208252,0.02257255044787872,9.786235605717767,449,1
0.6554313889937475,160,37234,-0.0023201529402285814,0.017850402742624283,-0.013110400177538395,0.008598268032073975,-0.01072344183921814,9.777374267578125,0.022268870212813638,9.77738392877752,449,1
0.6604407120030373,161,37239,0.003258162410929799,-0.0020453103352338076,0.004255578387528658,0.003996536135673523,0.04058857262134552,9.830265045166016,0.005736624798242528,9.83034965109285,449,1
0.6654101449530572,162,37244,0.002113139722496271,0.01062888465821743,-0.0013092875014990568,0.06489536166191101,0.04223008453845978,9.822159767150879,0.010915712634824312,9.822464928898588,449,1
0.6704471410484985,163,37249,0.005544774234294891,-0.003962574061006308,0.014916378073394299,-0.014259368181228638,0.02760183811187744,9.809252738952637,0.01639953808272351,9.809301936819862,449,1
0.6754708189982921,164,37254,-0.010338880121707916,-0.0038323423359543085,0.021539997309446335,0.06738463789224625,0.010222271084785461,9.747373580932617,0.024198156418247033,9.747611856783852,449,1
0.6804584159981459,165,37259,0.018060754984617233,-6.659882637904957e-05,-0.00346000911667943,-0.033404797315597534,-0.013516813516616821,9.72778606414795,0.018389316711220027,9.727852810079025,449,1
0.6854768369812518,166,37264,0.004384619649499655,0.005495151970535517,0.008350520394742489,0.019329555332660675,0.043061286211013794,9.774345397949219,0.010915712322751507,9.774459364307091,449,1
0.6904346930095926,167,37269,0.011073167435824871,-0.0026212073862552643,0.028661243617534637,-0.009006187319755554,0.014862999320030212,9.800455093383789,0.030837520181221472,9.800470501847913,449,1
0.6954382270341739,168,37274,-0.011529922485351562,0.0034526516683399677,0.0128868967294693,0.012341544032096863,0.009226277470588684,9.787691116333008,0.01763326468289729,9.78770324573897,449,1
0.700482678017579,169,37279,-0.006513046566396952,-0.01827545464038849,-0.008063539862632751,-0.037267327308654785,0.015477582812309265,9.831372261047363,0.02101029968861034,9.831455077685398,449,1
0.705462240963243,170,37284,0.012845294550061226,-0.007371971383690834,0.004221754614263773,0.09508448839187622,0.025648072361946106,9.800509452819824,0.015400349547424131,9.801004255603573,449,1
0.7104264519875869,171,37289,-0.006483564153313637,-0.006517261266708374,-0.0061681317165493965,-0.03943656384944916,0.06341519951820374,9.805315017700195,0.011070553166909657,9.805599386393224,449,1
0.71552689303644,172,37294,0.004260132554918528,0.0031945290975272655,-0.0001263448502868414,-0.01973852515220642,-0.031745463609695435,9.803339958190918,0.005326322235991644,9.80341122873552,449,1
0.7204264450119808,173,37299,0.0031338315457105637,-0.0054109846241772175,-0.004199972376227379,0.042629994451999664,0.03225754201412201,9.772425651550293,0.007532557515282972,9.772571871340826,449,1
0.72548658400774,174,37304,-0.00521592702716589,-0.004110218957066536,0.007617818657308817,0.006824806332588196,0.026988297700881958,9.778440475463867,0.010105986133148562,9.778480100628332,449,1
0.7303993600653484,175,37309,7.95604646555148e-05,-0.010543936863541603,0.005537835415452719,0.02120210975408554,0.046756893396377563,9.779629707336426,0.011910019124188261,9.779764462866948,449,1
0.7354761760216206,176,37314,0.002208924386650324,-0.0041539412923157215,0.0053787450306117535,0.009150117635726929,-0.009969428181648254,9.815046310424805,0.00714601100686773,9.815055638657103,449,1
0.7404391759773716,177,37319,-0.007658069953322411,-0.0056012594141066074,-0.013628405518829823,-0.027155935764312744,-0.005156457424163818,9.786761283874512,0.016605829681764432,9.786800317848805,449,1
0.7454449440119788,178,37324,0.008271915838122368,-0.0024723922833800316,-0.01712116040289402,-0.009213775396347046,-0.0033649951219558716,9.786462783813477,0.01917476072282319,9.786467699625614,449,1
0.7504758239956573,179,37329,-0.0029904665425419807,-0.014633151702582836,0.01418939046561718,-0.003469496965408325,0.04019467532634735,9.810636520385742,0.020601233474688202,9.81071947333427,449,1
0.755421353969723,180,37334,0.009568567387759686,0.014887996949255466,-0.0015037471894174814,-0.0032826513051986694,0.020711198449134827,9.823589324951172,0.017761508680988202,9.823611706232866,449,1
0.7604724509874359,181,37339,-0.004179167095571756,-0.02332392707467079,0.005856015719473362,0.029839321970939636,-0.005739346146583557,9.757218360900879,0.024408275889623788,9.75726567576855,449,1
0.7653762180125341,182,37344,0.008270666934549809,0.006048017181456089,-0.017291681841015816,-0.02887265384197235,0.003921911120414734,9.791990280151367,0.020099370742895403,9.792033632402697,449,1
0.7704204700421542,183,37349,-0.007206297013908625,-0.0007229173206724226,0.01716950535774231,0.01577262580394745,0.007216259837150574,9.776910781860352,0.018634517443034,9.776926167594189,449,1
0.7754706799751148,184,37354,-0.0021150128450244665,0.0021517297718673944,0.0010535066248849034,-0.025185897946357727,0.05071094632148743,9.798179626464844,0.003195793571937239,9.79834322332112,449,1
0.7804748739581555,185,37359,0.014112776145339012,-0.003899877890944481,0.017986390739679337,0.0399869903922081,0.037138789892196655,9.83698558807373,0.023192450278768522,9.837136967079678,449,1
0.7854526559822261,186,37364,0.0001698819105513394,0.01195002906024456,0.011479840613901615,0.02368665486574173,0.04704242944717407,9.704197883605957,0.01657162620037053,9.704340812851193,449,1
0.7903538360260427,187,37369,-0.014848766848444939,-0.006302861496806145,0.004606036935001612,0.028518348932266235,-0.006886869668960571,9.789570808410645,0.016775801507349742,9.789614769646736,449,1
0.7955116870580241,188,37374,-0.0028658234514296055,-0.0133975800126791,0.022687572985887527,-0.045498043298721313,0.031983181834220886,9.75936222076416,0.026503472644936094,9.759520682489638,449,1
0.8005133660044521,189,37379,-0.003588101826608181,0.017573460936546326,-0.02693898044526577,0.022308938205242157,0.026736006140708923,9.855402946472168,0.03236370917303578,9.85546446090089,449,1
0.8054478010162711,190,37384,-0.0021607198286801577,-0.005367574281990528,-0.001992098754271865,-0.017820268869400024,0.01866789162158966,9.811277389526367,0.0061194788419855865,9.811311332660456,449,1
0.8104594110045582,191,37389,0.018028773367404938,0.005216026678681374,-0.005696458276361227,0.014717325568199158,-0.013307049870491028,9.827596664428711,0.01961359835268097,9.827616693580314,449,1
0.8154841309878975,192,37394,-0.008692177012562752,-0.004493421874940395,-0.011504246853291988,0.05639924854040146,0.02852509915828705,9.854867935180664,0.015102730780405105,9.85507060230265,449,1
0.8204866029554978,193,37399,0.007472588215023279,-0.00637008436024189,0.0010836280416697264,0.0019085109233856201,0.07248722016811371,9.809911727905273,0.009878856164586874,9.810179720514556,449,1
0.8255158429965377,194,37404,0.005561778787523508,-0.013526719994843006,0.01617315039038658,0.005355089902877808,-0.035373181104660034,9.801249504089355,0.021805419754049534,9.801314798553364,449,1
0.8304467359557748,195,37409,0.004197265021502972,0.0063044223934412,-0.0044500380754470825,0.004635602235794067,0.03183220326900482,9.75145149230957,0.008784396066240638,9.751504549803563,449,1
0.8354786899872124,196,37414,0.0042769815772771835,-0.005304565187543631,0.0011091127526015043,-0.050459787249565125,0.028970301151275635,9.788215637207031,0.00690370294401863,9.78838857161598,449,1
0.840448635048233,197,37419,0.003197635989636183,-0.014911185018718243,0.00025161131634376943,0.05532660335302353,-0.005240350961685181,9.781965255737305,0.015252266154220368,9.782123121223151,449,1
0.845465871039778,198,37424,0.003258318407461047,-0.0031103615183383226,0.004276893567293882,0.06342379748821259,0.040219396352767944,9.721701622009277,0.006211505953077656,9.721991699508317,449,1
0.8505696880165488,199,37429,0.004307712893933058,-0.00206678151153028,0.0031750414054840803,0.019850648939609528,0.07427866756916046,9.809612274169922,0.005736624802050317,9.809913574454383,449,1
0.8554887840291485,200,37434,0.007174316793680191,0.0060055432841181755,-0.01940595544874668,-0.0325707346200943,0.03427806496620178,9.784256935119629,0.021543641253795504,9.784371191391303,449,1
0.8604563620174304,201,37439,-0.001190105569548905,0.0008946866728365421,-0.008525211364030838,0.015924513339996338,0.046901315450668335,9.786884307861328,0.008654250072110419,9.787009644369338,449,1
0.8655484430491924,202,37444,-0.0022226511500775814,-0.008647987619042397,-0.006187901366502047,0.036064013838768005,-0.0117674320936203,9.814688682556152,0.010863608577061753,9.814761995129992,449,1
0.8704456239938736,203,37449,0.0010011896956712008,0.010565094649791718,-0.004488498438149691,0.07907217741012573,-0.004669293761253357,9.810325622558594,0.01152259623500919,9.810645393253916,449,1
0.8754016699967906,204,37454,0.0064074378460645676,-0.006369928363710642,0.0010992280440405011,-0.03950934112071991,0.02204376459121704,9.800758361816406,0.009101623448747535,9.800862787648205,449,1
0.8803654239745811,205,37459,-0.005387838464230299,-0.002214582171291113,-0.0041391183622181416,-0.0481063574552536,-0.020510047674179077,9.826865196228027,0.007146011357847912,9.827004348656864,449,1
0.8853483080165461,206,37464,0.004323781002312899,-0.0052406201139092445,0.004303923808038235,-0.07707779109477997,-0.015482664108276367,9.809239387512207,0.008042570576604872,9.80955442720457,449,1
0.8903496239800006,207,37469,-1.560942735068238e-07,0.001065051183104515,-2.131507426383905e-05,0.0042695701122283936,-0.029021263122558594,9.849603652954102,0.0010652644645291714,9.849647332936797,449,1
0.8953373009571806,208,37474,0.010778642259538174,-0.015806805342435837,0.008683223277330399,0.03239168971776962,0.02221277356147766,9.808676719665527,0.021010297251032237,9.808755355282369,449,1
0.9003817279590294,209,37479,0.016869869083166122,0.006153343711048365,-0.012091795913875103,0.0028376877307891846,0.05694948136806488,9.750974655151367,0.021648733222345118,9.751141370183497,449,1
0.905451147002168,210,37484,-0.017010267823934555,-0.00634517939761281,0.0025073629803955555,0.05226578563451767,-0.01887430250644684,9.818182945251465,0.018327503434601544,9.81834020077069,449,1
0.9104439420625567,211,37489,-0.008769082836806774,-0.012055355124175549,-0.016679726541042328,0.0618424117565155,0.022566184401512146,9.736438751220703,0.022370553825346313,9.736661300098842,449,1
0.9154129569651559,212,37494,0.000924438878428191,0.0019381106831133366,-0.009642662480473518,-0.0018300116062164307,0.020244166254997253,9.80024242401123,0.009878856207693243,9.800263503834953,449,1
0.920381098985672,213,37499,-0.0020691496320068836,0.008605982176959515,0.004120427183806896,-0.014283031225204468,0.009625181555747986,9.807816505432129,0.00976331038156802,9.80783162851646,449,1
0.9254363829968497,214,37504,0.0011607789201661944,-0.01371793169528246,0.006651117466390133,0.016559123992919922,0.020851925015449524,9.830475807189941,0.015289421874278215,9.830511868825091,449,1
0.9304352840408683,215,37509,0.009459991939365864,0.01047858688980341,-0.008873045444488525,-0.018663793802261353,0.035459667444229126,9.753515243530273,0.016674026693033257,9.75359755838797,449,1
0.9354294380173087,216,37514,0.01182585209608078,0.00014748847752343863,0.007282959762960672,-0.00697675347328186,0.024156242609024048,9.816393852233887,0.013889349644900028,9.816426053372034,449,1
0.9404493969632313,217,37519,0.002131393179297447,-0.007455670274794102,0.00011800570791820064,-0.030750200152397156,0.03431372344493866,9.78602409362793,0.007755242193400881,9.786132564373549,449,1
0.9453898060601205,218,37524,-0.008506382815539837,0.005347819998860359,0.0010831608669832349,0.006485551595687866,0.010374844074249268,9.755443572998047,0.010105986582639328,9.755451245622519,449,1
0.9504376740660518,219,37529,-0.00538658956065774,-0.01073499210178852,-0.0039685978554189205,-0.026716575026512146,0.04568801820278168,9.816251754760742,0.0126493150588672,9.816394433967687,449,1
0.9554278180003166,220,37534,-0.016148226335644722,-0.004492329433560371,-0.011395047418773174,0.0023581385612487793,0.05336280167102814,9.840803146362305,0.020268037477835187,9.840948110567085,449,1
0.9604373030597344,221,37539,-0.00953955203294754,6.535007560160011e-05,0.0033352100290358067,0.03753790259361267,0.021888822317123413,9.792452812194824,0.010105985828184982,9.792549223452282,449,1
0.9654363200534135,222,37544,0.007442324887961149,-0.01280302181839943,-0.0009183554211631417,0.0260322242975235,0.003592059016227722,9.864787101745605,0.014837417029252682,9.864822103938637,449,1
0.9704214120283723,223,37549,-0.008258032612502575,0.014209270477294922,0.017951631918549538,0.03844159096479416,0.0009329766035079956,9.731828689575195,0.024338437884654136,9.731904657856042,449,1
0.975450593046844,224,37554,0.008599513210356236,-0.002024775603786111,0.005242515355348587,0.027963899075984955,0.01029987633228302,9.751540184020996,0.010273038058522149,9.751585718624444,449,1
0.9804401929723099,225,37559,0.005186756607145071,-0.009778076782822609,-0.009470595978200436,0.029008962213993073,0.052999794483184814,9.822469711303711,0.014567272148718986,9.822655533387232,449,1
0.9853978280443698,226,37564,-0.014987917616963387,-0.01501510664820671,-0.0048078750260174274,0.008672907948493958,0.018089458346366882,9.782181739807129,0.021753316170545236,9.782202310239324,449,1
0.990434703999199,227,37569,0.004137050826102495,-0.008691553957760334,-0.008411374874413013,0.02139052003622055,0.01650896668434143,9.792797088623047,0.012783173589383866,9.792834365967416,449,1
0.9954137119930238,228,37574,0.00017206722986884415,-0.0029606877360492945,0.011778252199292183,0.007272049784660339,0.024010539054870605,9.809008598327637,0.012145884235909652,9.809040680451849,449,1
1.0004747320199385,229,37579,-0.016335736960172653,-0.002618007827550173,-0.024216920137405396,0.021175317466259003,0.05030916631221771,9.777763366699219,0.02932864620057557,9.77791572173999,449,1
1.0054158120183274,230,37584,0.003289205953478813,-0.0009376290836371481,0.0063641369342803955,-0.0422719269990921,-0.006195589900016785,9.734950065612793,0.007224974949517442,9.735043815059127,449,1
1.0103802559897304,231,37589,-0.0013446997618302703,-0.008903924375772476,-0.018982743844389915,0.010177582502365112,0.021282389760017395,9.762351036071777,0.021010298679473,9.762379539579026,449,1
1.0154776399722323,232,37594,0.01176516991108656,-0.011653334833681583,0.0032576776575297117,0.022709138691425323,0.03380316495895386,9.760122299194336,0.016876963574737055,9.760207254673022,449,1
1.0204776549944654,233,37599,-0.018232040107250214,-0.002297969302162528,-0.008211667649447918,-0.053211331367492676,0.05703091621398926,9.845133781433105,0.020127578964471888,9.845442760257429,449,1
1.0255122240632772,234,37604,0.0074870954267680645,0.0011065886355936527,0.001999359577894211,0.026064790785312653,0.008362442255020142,9.744426727294922,0.007828063301971543,9.744465175030324,449,1
1.0305244269547984,235,37609,-0.011526644229888916,-0.018913423642516136,0.013334513641893864,-0.011014074087142944,0.03789898753166199,9.785663604736328,0.02585324689762532,9.785743192427702,449,1
1.0355677120387554,236,37614,0.0023660161532461643,-0.011396149173378944,0.01617732085287571,0.02521471679210663,0.022213831543922424,9.808782577514648,0.01992927390539391,9.808840139853931,449,1
1.0405414439737797,237,37619,0.004305840004235506,0.010713833384215832,0.002919260412454605,0.011277824640274048,0.04611337184906006,9.837226867675781,0.011910019533255902,9.837341413131607,449,1
1.0455193549860269,238,37624,-0.007392871659249067,-0.005238903220742941,0.0044755227863788605,-0.005786135792732239,0.01794794201850891,9.775216102600098,0.010105986470297455,9.775234291848067,449,1
1.0505195050500333,239,37629,-0.013140756636857986,0.0005766776157543063,-0.02432766556739807,0.0193195641040802,0.11123611032962799,9.772981643676758,0.027655873770698423,9.77363376260034,449,1
1.0555152440210804,240,37634,-0.02983933873474598,-0.0032120980322360992,-0.0005641944007948041,0.02120552957057953,0.02343393862247467,9.780096054077148,0.030017028920555994,9.780147118062137,449,1
1.0605238609714434,241,37639,-0.0061395857483148575,-0.01137358509004116,0.017367057502269745,0.008718624711036682,0.06480719149112701,9.784835815429688,0.02164873292478018,9.785054313666398,449,1
1.0654039710061625,242,37644,0.011577814817428589,-0.010844064876437187,-0.009542880579829216,0.04798618704080582,0.03401491045951843,9.770517349243164,0.01851232315923448,9.770694394982476,449,1
1.070401040953584,243,37649,-0.01185580249875784,-0.008710527792572975,-0.009242312982678413,0.024845249950885773,0.03247559070587158,9.783452033996582,0.017373937279284875,9.783537481501702,449,1
1.0754245440475643,244,37654,-0.005497193895280361,-0.001298736548051238,-0.011614992283284664,0.013900592923164368,-6.750226020812988e-05,9.771698951721191,0.012915645670438394,9.771708838995828,449,1
1.080418328056112,245,37659,0.0032913913019001484,-0.015848342329263687,0.006662548054009676,0.0156441330909729,-0.012698084115982056,9.768336296081543,0.017504078320772654,9.76835707647834,449,1
1.0854032869683579,246,37664,0.001974457409232855,-0.001278514158912003,-0.010659254156053066,0.03363487869501114,0.016076266765594482,9.771086692810059,0.010915712513562619,9.771157808050576,449,1
1.0904759609838948,247,37669,-0.0025990779977291822,0.004686115775257349,-0.03202348202466965,-0.02843092381954193,0.03861971199512482,9.82180404663086,0.03246872785437914,9.82192112216333,449,1
1.0954454650636762,248,37674,-0.0074870954267680645,-0.0011065886355936527,-0.001999359577894211,0.030885979533195496,0.02619612216949463,9.828363418579102,0.007828063301971543,9.828446859408272,449,1
1.1004253010032699,249,37679,-0.0041345530189573765,-0.008349264971911907,0.008752415888011456,0.03543122857809067,0.0017234236001968384,9.771347045898438,0.012783174023476332,9.77141143507608,449,1
1.1054460139712319,250,37684,0.004230493679642677,-0.007498613093048334,-0.002043067943304777,-0.02919928729534149,0.08063625544309616,9.768919944763184,0.008848751421171924,9.769296376467569,449,1
1.1104481220245361,251,37689,0.006827230099588633,0.003791038878262043,0.02966069057583809,-0.0021209120750427246,0.032407715916633606,9.780258178710938,0.03067147880433602,9.780312101388235,449,1
1.1154135910328478,252,37694,0.0002978030242957175,-0.00918047409504652,0.02042563632130623,-0.02570277452468872,-0.009211599826812744,9.763486862182617,0.02239590164251853,9.763525039359616,449,1
1.1204532580450177,253,37699,0.012938113883137703,-0.0019188247388228774,0.010504800826311111,0.02526964247226715,0.006138980388641357,9.812691688537598,0.01677580160921754,9.812726145990508,449,1
1.1254570810124278,254,37704,-0.001143618137575686,0.0030887341126799583,-0.005373029969632626,0.003341957926750183,0.023544281721115112,9.785740852355957,0.006302189454308344,9.78576974649173,449,1
1.1304580729920417,255,37709,0.030199851840734482,-0.008013218641281128,0.025292210280895233,0.0007814615964889526,0.003416210412979126,9.856184959411621,0.04019873909823928,9.856185582430339,449,1
1.1354427890619263,0,37714,-0.0045409309677779675,-0.0035782004706561565,-0.019042519852519035,0.01586773991584778,0.07553468644618988,9.782721519470215,0.019900782270953835,9.783025994115123,449,1
1.1404658780666068,1,37719,-2.8702299459837377e-05,-0.01708344928920269,-0.00178883271291852,-0.019189313054084778,-0.013050705194473267,9.840652465820312,0.017176873577969935,9.840679829345987,449,1
1.1454248019726947,2,37724,0.004261537455022335,-0.00639093155041337,6.54908362776041e-05,-0.01318119466304779,0.02369171380996704,9.882908821105957,0.007681731355121945,9.882946008528526,449,1
1.1504637129837647,3,37729,-0.011951743625104427,0.007137348875403404,-0.01595166139304638,0.006064310669898987,0.015182584524154663,9.726633071899414,0.02117171286995582,9.726646811831102,449,1
1.1554600270465016,4,37734,-0.011825695633888245,-0.0012125397333875299,-0.007261644583195448,0.024269230663776398,0.01733309030532837,9.74427318572998,0.013930140411462434,9.744318824305413,449,1
1.1604072629706934,5,37739,-0.002348699141293764,-0.0002980988356284797,-0.014877917245030403,0.0034722834825515747,0.03090009093284607,9.79456615447998,0.015065114407865949,9.794615511946194,449,1
1.165470122010447,6,37744,-0.0032871770672500134,-0.012908035889267921,-0.0060870409943163395,-0.017900943756103516,0.031118690967559814,9.805645942687988,0.01464496472022281,9.805711660561323,449,1
1.1704055919544771,7,37749,0.00332212308421731,-0.012610562145709991,0.00872847717255354,0.02321157604455948,0.01295645534992218,9.794635772705078,0.01569232593241969,9.794671845802274,449,1
1.1755086559569463,8,37754,-0.001110232900828123,-0.011779352091252804,-0.002944745123386383,-0.003617420792579651,-0.026401489973068237,9.801201820373535,0.012192509037334806,9.801238046701013,449,1
1.1804264900274575,9,37759,-0.007580070290714502,-0.0054946839809417725,-0.008303721435368061,-0.0718645453453064,0.06503446400165558,9.796782493591309,0.012514024426170094,9.797261924697269,449,1
1.185485537047498,10,37764,-0.0021794415079057217,0.01591213420033455,-0.003483337117359042,0.009256795048713684,-0.020590275526046753,9.822437286376953,0.01643409923205437,9.822463229379332,449,1
1.1905447869794443,11,37769,-0.0019254726357758045,-0.013568256981670856,0.014152475632727146,-0.0051536113023757935,0.006251171231269836,9.818521499633789,0.019700193119020864,9.818524842135002,449,1
1.1954676699824631,12,37774,-0.0021616562735289335,0.0010227332822978497,-0.0021199891343712807,0.02619277685880661,0.031864941120147705,9.7529296875,0.0031957933508690796,9.753016914029782,449,1
1.2005325889913365,13,37779,0.002098476281389594,0.004217262379825115,-0.002246333984658122,0.0004125237464904785,0.010089844465255737,9.830927848815918,0.005218708753558962,9.830933035259752,449,1
1.2054910639999434,14,37784,-0.0032893624156713486,0.0020026802085340023,-0.00638545211404562,0.029961511492729187,0.05723278224468231,9.764930725097656,0.007456851334179509,9.765144410068427,449,1
1.2105003299657255,15,37789,0.01928330771625042,-0.009439065121114254,0.007365596015006304,0.008747786283493042,0.045108288526535034,9.787025451660156,0.022697883414462137,9.787133312308683,449,1
1.2154759189579636,16,37794,-0.007658538408577442,-0.0024061056319624186,-0.013692350126802921,0.042996570467948914,0.04173056781291962,9.79736042022705,0.015872082625250448,9.797543638545,449,1
1.220494301058352,17,37799,0.004465116653591394,-0.011439090594649315,0.014016246423125267,0.023061789572238922,-0.041081205010414124,9.784950256347656,0.018634517008941913,9.785063670244638,449,1
1.2255037380382419,18,37804,0.018909066915512085,-0.011015677824616432,-0.018171576783061028,0.0033474862575531006,-0.014131292700767517,9.786494255065918,0.028444756499814556,9.786505030067469,449,1
1.230502970982343,19,37809,0.006251282524317503,-0.005518028046935797,-0.009571456350386143,-0.02760055661201477,-0.020119428634643555,9.756553649902344,0.012694090884854839,9.756613434258663,449,1
1.2354603559942916,20,37814,-0.002473498461768031,-0.0004686194588430226,-0.0233974140137434,-0.006891652941703796,0.02899843454360962,9.69962215423584,0.023532462288678828,9.699667949936687,449,1
1.240501367021352,21,37819,0.004417536314576864,-0.0061777806840837,0.010714859701693058,0.05729532241821289,0.059597402811050415,9.793203353881836,0.013133461832213504,9.793552293977669,449,1
1.245464712032117,22,37824,0.0009408193873241544,-0.0033658300526440144,-0.008471150882542133,0.014376476407051086,-0.019156038761138916,9.804383277893066,0.009163751979273608,9.804412531953359,449,1
1.2505744460504502,23,37829,-0.01093339268118143,0.00707324780523777,-0.019162071868777275,0.0001281946897506714,-0.02259846031665802,9.811841011047363,0.023167971606064222,9.811867036039242,449,1
1.2554477760568261,24,37834,-0.0054014092311263084,-0.016081560403108597,-0.004926959052681923,-0.018111422657966614,0.03262552618980408,9.791257858276367,0.01766541061475026,9.791328964744702,449,1
1.2605133820325136,25,37839,0.0042295572347939014,-0.0011083056451752782,-0.0021709585562348366,0.01883002370595932,0.04417318105697632,9.740226745605469,0.004881655135137474,9.74034511172605,449,1
1.2655489620519802,26,37844,0.017136316746473312,-0.0020047095604240894,0.006182653363794088,-0.041280731558799744,0.0454028844833374,9.802111625671387,0.018327504322027913,9.802303700806235,449,1
1.2704051040345803,27,37849,0.0064690569415688515,-0.0009594123694114387,0.005252400413155556,0.01368720829486847,0.021174132823944092,9.756916046142578,0.00838790080460877,9.75694862213829,449,1
1.2755755019607022,28,37854,-0.01295449398458004,0.00722276559099555,-0.011676313355565071,-0.02315199375152588,0.029504939913749695,9.814729690551758,0.018876534394754164,9.814801345666258,449,1
1.2805161799769849,29,37859,-0.015993475914001465,0.004241230897605419,-0.0009161987109109759,-0.04011796414852142,0.049923136830329895,9.75892448425293,0.016571624284192024,9.759134636840999,449,1
1.2855456960387528,30,37864,-0.01512862928211689,-0.013076839968562126,-0.014434938319027424,0.030732005834579468,0.000863686203956604,9.818103790283203,0.024662656219337664,9.818151925841741,449,1
1.2905030860565603,31,37869,-0.013704993762075901,-0.010456646792590618,0.010000381618738174,-0.02903716266155243,0.05035240948200226,9.780293464660645,0.01992927366172514,9.780466184024144,449,1
1.2956581780454144,32,37874,0.006234746426343918,0.0008509638719260693,-0.010764284059405327,0.02481371909379959,0.06832118332386017,9.780940055847168,0.012468601117354717,9.781210143986359,449,1
1.3005092970561236,33,37879,0.010728408582508564,0.007560372818261385,0.005019479896873236,-0.014620691537857056,-0.01775270700454712,9.785035133361816,0.014051802955473848,9.785062160474615,449,1
1.3055098439799622,34,37884,0.002976583782583475,0.002896274207159877,-0.015019861981272697,0.014900997281074524,-0.011261627078056335,9.840117454528809,0.015583475518454782,9.840135181128709,449,1
1.3104847370414063,35,37889,-0.0011876079952344298,-0.016146130859851837,-0.008184169419109821,0.04305070638656616,0.03103792667388916,9.801163673400879,0.018140798868145167,9.801307365296,449,1
1.3154850860591978,36,37894,0.0018984873313456774,-0.015230754390358925,-0.01570684276521206,-0.017374590039253235,0.026454567909240723,9.841630935668945,0.021960989119295424,9.841681827536302,449,1
1.3206946779973805,37,37899,-0.0031004464253783226,-0.009457102045416832,0.006628257222473621,-0.012075185775756836,0.05684533715248108,9.835559844970703,0.011957564172578886,9.835731526758323,449,1
1.3256001030094922,38,37904,0.015884745866060257,-0.007585590239614248,-0.006474414840340614,-0.029575318098068237,-0.04369343817234039,9.744489669799805,0.018755915814416317,9.744632509274787,449,1
1.3305096429539844,39,37909,0.008741005323827267,-0.009288298897445202,0.014976154081523418,0.005583435297012329,0.02056625485420227,9.81628131866455,0.01967137162358001,9.81630445089959,449,1
1.3355586740653962,40,37914,0.00955655612051487,-0.009629495441913605,-0.00207843747921288,-0.0359736829996109,0.02376551926136017,9.797082901000977,0.013724971756086855,9.797177770912398,449,1
1.3405564590357244,41,37919,0.004649662412703037,0.006922559347003698,0.026433134451508522,0.009940817952156067,0.02275332808494568,9.746170043945312,0.02771735531028201,9.746201673436554,449,1
1.345479215029627,42,37924,-0.003132426645606756,-0.004174476023763418,0.004391808062791824,0.05336838215589523,0.03760227560997009,9.770366668701172,0.006821020805091135,9.770584780667523,449,1
1.35054177895654,43,37929,0.020004168152809143,-0.0024527942296117544,-0.01622782275080681,0.01684713363647461,0.028423190116882324,9.850064277648926,0.025875184525917555,9.85011969356026,449,1
1.3555244230665267,44,37934,-0.0032108945306390524,-0.001085897907614708,-0.0009968221420422196,0.05574782192707062,-0.010048076510429382,9.810774803161621,0.0035330825543023222,9.810938335441831,449,1
1.360538651002571,45,37939,0.001113510923460126,-0.010586722753942013,0.00339236157014966,0.036393240094184875,0.12081307172775269,9.713305473327637,0.011172587984353798,9.71412494692144,449,1
1.365505942958407,46,37944,0.0020515206269919872,0.005218368489295244,-0.00546245975419879,0.02149328589439392,0.03279927372932434,9.799649238586426,0.007828063179311,9.799727697901774,449,1
1.3704892139649019,47,37949,-0.0021917633712291718,-0.006475255358964205,-0.004100657533854246,0.01706494390964508,0.024474531412124634,9.742441177368164,0.007971709405717954,9.742486864732088,449,1
1.3755788969574496,48,37954,-0.014848923310637474,-0.00523781031370163,0.004584721755236387,0.0031120330095291138,-0.021630719304084778,9.770493507385254,0.01639953822339062,9.77051794689639,449,1
1.3804834120674059,49,37959,-0.008300461806356907,-0.0156761072576046,0.015353642404079437,0.0189325213432312,0.01446525752544403,9.870058059692383,0.023460015772012167,9.870086817538043,449,1
1.385452131042257,50,37964,0.005372706800699234,-0.001001886441372335,0.003138126339763403,-0.013406947255134583,-0.002396225929260254,9.745220184326172,0.006302189439552129,9.745229701199024,449,1
1.3905005300184712,51,37969,-0.01644556224346161,0.001492991577833891,-0.03175674006342888,-0.01958821713924408,0.018704071640968323,9.813097953796387,0.0357935200952804,9.813135329309867,449,1
1.3955653520533815,52,37974,0.011562526226043701,-0.012995482422411442,-0.010565186850726604,-0.040009692311286926,0.028537854552268982,9.76653003692627,0.020351848793412345,9.76665368213721,449,1
1.400468192063272,53,37979,0.009789151139557362,0.00027569112717173994,0.013703781180083752,-0.04494725167751312,0.039913490414619446,9.796891212463379,0.016843310371251728,9.797075623419094,449,1
1.4054816389689222,54,37984,0.0159476138651371,-0.010695483535528183,-0.002150721848011017,-0.011596664786338806,0.06760834157466888,9.745588302612305,0.019322146892045394,9.745829709906614,449,1
1.410453693009913,55,37989,0.003602921264246106,-0.0122268907725811,0.027897341176867485,0.016805604100227356,0.0007925182580947876,9.724969863891602,0.0306714777006184,9.724984416954825,449,1
1.415484669036232,56,37994,0.007299740798771381,0.0019158589420840144,-0.01080119889229536,0.03827054053544998,0.04442305862903595,9.84225082397461,0.013176593972879836,9.842425479750391,449,1
1.4204550340073183,57,37999,0.002162592951208353,-0.007413039915263653,0.00224787974730134,-0.010536596179008484,0.00804603099822998,9.818564414978027,0.008042570013138569,9.818573365288191,449,1
1.4255142890615389,58,38004,0.007673826068639755,0.004557523410767317,0.014714658260345459,0.025217607617378235,0.0024790167808532715,9.80917739868164,0.017209874894669634,9.8092101268178,449,1
1.430484273005277,59,38009,0.007502071093767881,0.0053881085477769375,0.0029790361877530813,0.0012060999870300293,0.023077785968780518,9.762446403503418,0.009705021433593896,9.762473755158537,449,1
1.4354528830153868,60,38014,0.0034603369422256947,0.0024919903371483088,0.01801449991762638,0.050332531332969666,0.03297460079193115,9.808198928833008,0.01851232440501012,9.808383501656566,449,1
1.4404794319998473,61,38019,-0.005249156150966883,0.009692816063761711,0.0052108485251665115,-0.02143554389476776,0.022220656275749207,9.809465408325195,0.012192508597305992,9.809513995975335,449,1
1.4454688660334796,62,38024,0.024747585877776146,0.0035326045472174883,0.016616249457001686,-0.0232037752866745,0.02405090630054474,9.811248779296875,0.030017029294755932,9.811305696518474,449,1
1.4505750910611823,63,38029,-0.0025067273527383804,0.013334415853023529,-0.02580438181757927,-0.03716433048248291,0.029973790049552917,9.838258743286133,0.02915401257373927,9.83837459722876,449,1
1.4554642949951813,64,38034,-0.0008623515022918582,0.00027725205291062593,0.013859779573976994,-0.012754201889038086,0.027206599712371826,9.7894926071167,0.013889348748360309,9.78953872118223,449,1
1.4605343530420214,65,38039,-0.009695863351225853,0.0019823017064481974,-0.007356789894402027,0.003184273838996887,0.023328840732574463,9.774977684020996,0.012331327735949922,9.775006040791908,449,1
1.4654802540317178,66,38044,-0.01745065674185753,0.01755417510867119,-0.027801116928458214,0.03722257912158966,0.021457970142364502,9.770926475524902,0.037223333904123024,9.771020937189347,449,1
1.4704784880159423,67,38049,0.01153195183724165,-0.017298316583037376,-0.01260980125516653,-0.01794666051864624,-0.015599057078361511,9.802990913391113,0.0243151137665084,9.803019752159752,449,1
1.4754473890643567,68,38054,0.015070600435137749,-0.016829853877425194,0.010772011242806911,-0.01665589213371277,0.012423664331436157,9.768306732177734,0.025028048370302796,9.768328832512092,449,1
1.4804560389602557,69,38059,-0.00736120343208313,-0.008391426876187325,0.006669341586530209,0.00516219437122345,0.025373995304107666,9.78747272491455,0.01300321030302643,9.787506977204904,449,1
1.4854693829547614,70,38064,0.006437857169657946,-0.0010020425543189049,0.00312252645380795,-0.016391009092330933,-0.0015698820352554321,9.786532402038574,0.007224975132989222,9.786546254213464,449,1
1.4903957090573385,71,38069,0.006608051247894764,0.00881788320839405,0.01464499719440937,0.02526754140853882,0.020491570234298706,9.81240463256836,0.018327502513870778,9.812458561764656,449,1
1.4954939379822463,72,38074,0.0010047798277810216,-0.01393108256161213,-0.003998251631855965,0.00510464608669281,0.059389591217041016,9.783202171325684,0.014528271058608733,9.783383765650214,449,1
1.5004839190514758,73,38079,-0.0063274092972278595,-0.007369161583483219,0.004502553027123213,0.026479199528694153,0.050200656056404114,9.772303581237793,0.010705775759849767,9.772468395331304,449,1
1.5054864820558578,74,38084,0.0021766319405287504,0.003258786629885435,0.003099665744230151,0.002153173089027405,0.01719406247138977,9.827170372009277,0.0049965332611325505,9.827185649637213,449,1
1.5105213669594377,75,38089,0.003116670763120055,0.005218212027102709,-0.005478059872984886,-0.012487486004829407,0.0006545484066009521,9.80797004699707,0.008182451550574186,9.807978018354856,449,1
1.5155233320547268,76,38094,-0.0020811595022678375,-0.015911508351564407,0.003545736661180854,-0.03597237169742584,0.01479513943195343,9.797262191772461,0.01643409782635559,9.797339402205605,449,1
1.520466172019951,77,38099,-0.008459426462650299,0.00434671388939023,0.004299286752939224,-0.0243825763463974,-0.0504741370677948,9.854043006896973,0.010437417510917382,9.854202440092102,449,1
1.5255064150551334,78,38104,-0.003196855541318655,0.009585929103195667,-0.0001450359559385106,-0.018636181950569153,0.02652519941329956,9.755488395690918,0.010105986223623525,9.755542257196254,449,1
1.5304798280121759,79,38109,0.0029474131297320127,-0.010992021299898624,-0.016872640699148178,-0.012937620282173157,0.02336713671684265,9.777008056640625,0.02035184956158268,9.777044540387068,449,1
1.5355097680585459,80,38114,0.0031640948727726936,0.001021952717565,-0.002197988796979189,-0.0031192004680633545,-0.018543019890785217,9.835142135620117,0.003985854798219694,9.835160110585312,449,1
1.5404934419784695,81,38119,-0.0029939005617052317,0.008797974325716496,0.013720459304749966,0.008825302124023438,0.0541863739490509,9.792226791381836,0.016571626243149628,9.792380690257888,449,1
1.5454712610226125,82,38124,-0.00012636017345357686,0.01047999132424593,-0.008732646703720093,0.0251629501581192,0.016759797930717468,9.805302619934082,0.013642041764402372,9.805349230566625,449,1
1.5504956010263413,83,38129,-0.002287548268213868,0.008307570591568947,-0.0107886902987957,0.02978520095348358,0.004953309893608093,9.753416061401367,0.013807405425228809,9.753462798425845,449,1
1.55549348203931,84,38134,0.0014230115339159966,0.006880397908389568,0.024350058287382126,0.00862114131450653,0.012635424733161926,9.778701782226562,0.025343444434455558,9.778713745874592,449,1
1.5604603859828785,85,38139,0.005376141052693129,-0.024433011189103127,0.0036070579662919044,0.0028205960988998413,-0.005879029631614685,9.75043773651123,0.025276190289627923,9.750439916861906,449,1
1.5655606590444222,86,38144,-0.0009712385945022106,-0.0020020559895783663,0.006447851657867432,0.046423450112342834,0.0684257447719574,9.786006927490234,0.006821020715019199,9.786356257778213,449,1
1.570483871968463,87,38149,-0.006390901282429695,9.365656410409429e-07,9.359943214803934e-05,0.024824760854244232,-0.0070299506187438965,9.782447814941406,0.0063915867304304924,9.782481839544046,449,1
1.5755847709951922,88,38154,0.0011297352612018585,-0.014825612306594849,0.004542558919638395,0.0020341426134109497,-0.06730693578720093,9.8198881149292,0.015547022980758914,9.820118988641074,449,1
1.580470668966882,89,38159,-0.005123888608068228,0.006668183486908674,0.013794288970530033,-0.029772400856018066,-0.002033337950706482,9.85315227508545,0.016155535078896627,9.853197465104286,449,1
1.5854722550138831,90,38164,0.010541833937168121,0.0030443870928138494,-0.007674503140151501,-0.012837767601013184,0.05939221382141113,9.783465385437012,0.013390166316290338,9.783654081752061,449,1
1.5905170340556651,91,38169,0.006688079796731472,-0.004921205807477236,0.020246775820851326,0.0018133819103240967,0.004168778657913208,9.804100036621094,0.021883340903682994,9.804101090622392,449,1
1.59548497304786,92,38174,-0.004339693114161491,0.00734940730035305,-0.005411490332335234,0.008877351880073547,0.057846322655677795,9.795743942260742,0.010105985929563778,9.795918761747629,449,1
1.600570042966865,93,38179,-0.016964560374617577,0.0011741239577531815,0.005552968010306358,0.05028470605611801,0.0006094574928283691,9.805257797241211,0.01788883253585042,9.805386753895082,449,1
1.6054703430272639,94,38184,0.002052769297733903,-0.00330204120837152,-0.0052919392473995686,-0.015608981251716614,0.04256506264209747,9.839487075805664,0.006566731221062006,9.839591523015583,449,1
1.6105168639915064,95,38189,0.005216863472014666,-0.002280088374391198,-0.0074899280443787575,0.007402926683425903,0.027778208255767822,9.817906379699707,0.009408160797448469,9.817948467614077,449,1
1.615476806065999,96,38194,0.009884622879326344,-0.012377032078802586,0.020349182188510895,-0.01735304296016693,0.05878379940986633,9.842778205871582,0.025787320688420098,9.842969037498474,449,1
1.6204390979837626,97,38199,-0.0010816866997629404,0.006369147915393114,-0.0011772275902330875,0.02072647213935852,0.06405134499073029,9.746979713439941,0.00656673100437398,9.747212201222062,449,1
1.6255541660357267,98,38204,0.004057802259922028,-0.0002777203335426748,-0.013906579464673996,-0.008639618754386902,0.024336040019989014,9.82538890838623,0.014489162852683514,9.825422845195785,449,1
1.6304527900647372,99,38209,-0.009602420032024384,0.0031752432696521282,-0.0009884830797091126,0.010733634233474731,-0.006668791174888611,9.800596237182617,0.010161975157013793,9.800604383810096,449,1
1.6355321150040254,100,38214,-3.0419336326303892e-05,-0.005367886275053024,-0.0020232985261827707,0.014136046171188354,0.007431939244270325,9.787700653076172,0.005736624907031881,9.787713682763203,449,1
1.640524260001257,101,38219,-0.0031806312035769224,0.005347039550542831,0.0010051613207906485,-0.0195905864238739,0.03485073149204254,9.812774658203125,0.006302189785229422,9.812856100913505,449,1
1.6458309580339119,102,38224,-0.0011893251212313771,-0.004430569242686033,-0.008418635465204716,-0.023490458726882935,0.007509276270866394,9.791839599609375,0.009587380307165777,9.79187065556728,449,1
1.6505617500515655,103,38229,0.0041526504792273045,-0.00867023877799511,-0.007346437778323889,0.013446256518363953,0.05135025084018707,9.740161895751953,0.012099078250051172,9.740306535501539,449,1
1.65554507705383,104,38234,-0.005354765336960554,-0.014952566474676132,-0.0017534634098410606,-0.023466035723686218,0.02010369300842285,9.793381690979004,0.01597896711064812,9.793430438743512,449,1
1.6605330790625885,105,38239,-0.002209392609074712,0.007349094841629267,-0.0054426901042461395,0.06273559480905533,0.025581002235412598,9.797394752502441,0.009408160620607767,9.797629002921768,449,1
1.665609786985442,106,38244,0.004434541333466768,-0.015741923823952675,0.011971632950007915,0.04231519252061844,0.02823852002620697,9.750970840454102,0.02026803685626877,9.751103543749164,449,1
1.6704905329970643,107,38249,-0.006546431686729193,-0.003407367505133152,-0.010491824708878994,-0.026808008551597595,-0.047747448086738586,9.810944557189941,0.012827482483554328,9.81109736942694,449,1
1.6757406810065731,108,38254,0.0030410124454647303,-0.010864131152629852,-0.01048301812261343,-0.007337555289268494,-0.02478642761707306,9.792248725891113,0.01540034971531671,9.792282844997267,449,1
1.6805668079759926,109,38259,-0.019173327833414078,0.004263014532625675,0.00019553799938876182,-0.03900691866874695,0.0011970698833465576,9.835272789001465,0.019642505650302195,9.835350212715,449,1
1.6855241210432723,110,38264,-0.017071574926376343,-0.013885797932744026,-0.0016031794948503375,-0.008872166275978088,-0.0028982162475585938,9.809783935546875,0.02206409389004199,9.80978837575538,449,1
1.6905516609549522,111,38269,-0.003084534080699086,-0.011565889231860638,0.007735824212431908,0.034665241837501526,-0.020198985934257507,9.841801643371582,0.014252267204354251,9.841883420641397,449,1
1.6955684289569035,112,38274,0.014850015752017498,-0.002217547968029976,-0.004435516428202391,-0.0016991496086120605,0.024011850357055664,9.8091402053833,0.015656126366714564,9.80916974187592,449,1
1.7005479240324348,113,38279,0.014944083988666534,-0.005284810904413462,0.002018050756305456,0.006632447242736816,0.03635506331920624,9.887749671936035,0.015978967470107446,9.887818730885824,449,1
1.705498503986746,114,38284,0.0002801739319693297,0.004643876105546951,0.019083604216575623,0.030051663517951965,-0.019804686307907104,9.771857261657715,0.01964250576201336,9.77192353993279,449,1
1.710547778988257,115,38289,0.0034948145039379597,-0.019831452518701553,0.020591987296938896,-0.013839200139045715,0.029970377683639526,9.83791732788086,0.02880156555216647,9.837972712770526,449,1
1.7155871910508722,116,38294,0.0020694618579000235,-0.010736084543168545,-0.004077796824276447,-0.01198713481426239,-0.005839556455612183,9.842198371887207,0.011669387757695115,9.842207404002409,449,1
1.7205766569823027,117,38299,0.004276045132428408,0.0010857419110834599,0.0009812222560867667,-0.019193261861801147,0.01386040449142456,9.84011459350586,0.00451953477560333,9.8401430734233,449,1
1.7256917919730768,118,38304,0.02036374621093273,-0.0072878035716712475,0.00837230309844017,0.0036832988262176514,0.025805115699768066,9.809025764465332,0.023192449198277707,9.809060399377262,449,1
1.7305743639590219,119,38309,0.013866299763321877,-0.025541942566633224,0.0013737000990658998,0.03458508849143982,-0.011336326599121094,9.836240768432617,0.02909556927034878,9.83630810290236,449,1
1.7356063550105318,120,38314,0.0033207181841135025,-0.003025101264938712,0.008536641485989094,-0.01758192479610443,0.006432518362998962,9.827674865722656,0.009646380397939216,9.82769269807155,449,1
1.7405724190175533,121,38319,-0.002428259700536728,0.010245837271213531,-0.02041575126349926,0.03782302886247635,0.049194902181625366,9.811646461486816,0.02297121081298308,9.81184269162117,449,1
1.7457659379579127,122,38324,-0.0032751671969890594,0.01160945650190115,-0.005512350704520941,-0.0007182210683822632,0.013928145170211792,9.753683090209961,0.013262436078164545,9.75369306126234,449,1
1.7505970250349492,123,38329,0.002098788507282734,0.002087160013616085,-0.002203703857958317,0.020540982484817505,0.026772186160087585,9.857223510742188,0.003690184387577449,9.857281269327855,449,1
1.755531270056963,124,38334,0.0019591697491705418,-0.003429931588470936,-0.01168156135827303,0.047905243933200836,0.04825977981090546,9.764847755432129,0.012331328094522233,9.7650845160455,449,1
1.7605660000117496,125,38339,-0.011561121791601181,0.003410021308809519,0.01075702253729105,0.023474089801311493,0.015109598636627197,9.812539100646973,0.016155535159027023,9.812578811637064,449,1
1.7655165529577062,126,38344,-0.00523121515288949,-0.006261636037379503,0.006595511455088854,0.023789428174495697,0.015540450811386108,9.834066390991211,0.010491638060600383,9.83410744424359,449,1
1.770791067974642,127,38349,-0.015052814036607742,0.0019404520280659199,-0.009408663958311081,0.031226269900798798,0.035633280873298645,9.8515043258667,0.01785708604376263,9.851618257586315,449,1
1.77564482903108,128,38354,0.003133519319817424,-0.0032808820251375437,-0.0042426022700965405,-0.02526158094406128,0.029074326157569885,9.793229103088379,0.006211505792701798,9.793304842058708,449,1
1.78048411605414,129,38359,0.008570031262934208,-0.013782968744635582,0.0033471076749265194,0.04612099379301071,-0.01991477608680725,9.76623821258545,0.016571626143828583,9.766367419329423,449,1
1.785535573028028,130,38364,0.0040407972410321236,0.00928642600774765,-0.015163352712988853,-0.0846526026725769,0.009096845984458923,9.781933784484863,0.018234391019143228,9.78230429805741,449,1
1.7906155979726464,131,38369,0.005434481892734766,0.0033435786608606577,0.007312614005059004,0.014742538332939148,-0.0060948580503463745,9.829245567321777,0.009705021138091864,9.829258512850599,449,1
1.7955508190207183,132,38374,0.006502598058432341,-0.016892550513148308,0.007702000439167023,-0.007583007216453552,0.03588894009590149,9.774883270263672,0.01967137145990905,9.774952095294394,449,1
1.800448260968551,133,38379,0.02230715937912464,-0.00967399962246418,-0.004395510070025921,-0.025582432746887207,0.06631903350353241,9.77094841003418,0.024708624750009962,9.771206962633611,449,1
1.8056577240349725,134,38384,0.0032756354194134474,-0.014804610051214695,0.005576295778155327,0.03218725323677063,-0.017544105648994446,9.79511547088623,0.01615553591729213,9.795184066821243,449,1
1.8105479519581422,135,38389,-0.0020508961752057076,-0.009478573687374592,0.0055477200075984,0.03173317015171051,0.03207959234714508,9.7636137008667,0.011172588399792188,9.763717969814827,449,1
1.815595687017776,136,38394,-0.005401877220720053,-0.0128864087164402,-0.004990904126316309,0.0002495795488357544,0.04575589299201965,9.819445610046387,0.014837416591609247,9.819552217524622,449,1
1.8204891619971022,137,38399,-0.0063303750939667225,0.012866811826825142,0.004097566474229097,0.04115162044763565,0.029100507497787476,9.794050216674805,0.014913703310310548,9.79417990145933,449,1
1.8256726680556312,138,38404,-0.007468373980373144,-0.022386295720934868,-0.0005081210401840508,0.08375957608222961,0.07692382484674454,9.761954307556152,0.023604682438180334,9.762616700671426,449,1
1.8305283470544964,139,38409,-0.01074463315308094,-0.0033214830327779055,-0.006169677246361971,0.03009999543428421,0.008972302079200745,9.774869918823242,0.012827482545518985,9.774920380332786,449,1
1.8355870239902288,140,38414,0.006438481621444225,-0.005262247286736965,0.0032077867072075605,-0.0036765486001968384,0.01837855577468872,9.796717643737793,0.008912642013195814,9.796735572599955,449,1
1.8405379189644009,141,38419,0.0043406300246715546,-0.01373971439898014,0.005539380945265293,0.044921405613422394,0.0472920686006546,9.806195259094238,0.015437148766316616,9.806412184479965,449,1
1.8455683479551226,142,38424,-0.0030850025359541178,-0.008370735682547092,0.007671879138797522,-0.027027443051338196,0.014757901430130005,9.79533576965332,0.01176623074880937,9.79538417411907,449,1
1.8507229479728267,143,38429,-0.0065157003700733185,-0.00016958403284661472,-0.008425896055996418,-0.025623679161071777,-0.010897964239120483,9.768904685974121,0.010652644479340615,9.768944369900233,449,1
1.8556311540305614,144,38434,0.008585942909121513,-0.015891753137111664,0.004454674664884806,0.04635303467512131,0.01090763509273529,9.781773567199707,0.01860404149048155,9.781889474957985,449,1
1.860615512006916,145,38439,0.00856753345578909,0.0032578501850366592,0.0030060664284974337,0.04835619032382965,0.02016499638557434,9.795919418334961,0.009646380290904357,9.79605952405016,449,1
1.865484756999649,146,38444,-0.009647814556956291,-0.0064741624519228935,-0.003991458564996719,-0.03298643231391907,0.001410260796546936,9.756200790405273,0.012285228799472627,9.75625665694875,449,1
1.8705979969818145,147,38449,0.0008798245107755065,-0.013036551885306835,-0.012539062649011612,-0.03260016441345215,0.05577106773853302,9.782032012939453,0.018109496634194356,9.782245319193787,449,1
1.8757363540353253,148,38454,0.004417692311108112,-0.007242831867188215,0.010736174881458282,0.0118330717086792,0.07133667171001434,9.752349853515625,0.013683569340535263,9.752617936107358,449,1
1.8805272820172831,149,38459,0.006533173844218254,-0.012589715421199799,0.009746613912284374,0.009924516081809998,0.08619366586208344,9.866960525512695,0.017209874421991254,9.867341985361609,449,1
1.885492829955183,150,38464,-0.008305300958454609,0.01734047755599022,0.014692875556647778,-0.009053215384483337,-0.02288438379764557,9.797621726989746,0.024198156500102343,9.79765263524443,449,1
1.8905164640164003,151,38469,-0.015083390288054943,-0.0023623828310519457,-0.011453277431428432,0.0147286057472229,0.08899109065532684,9.827342987060547,0.01908578212029853,9.827756943034936,449,1
1.8954719200264663,152,38474,-0.00932068470865488,-0.0028313924558460712,0.018308274447917938,0.025104083120822906,0.05974575877189636,9.800851821899414,0.02073848740717268,9.801066074948665,449,1
1.900632273987867,153,38479,0.016745224595069885,0.0049177720211446285,-0.020589973777532578,0.048254743218421936,-0.005095690488815308,9.78924560546875,0.02699136989022168,9.789365863552852,449,1
1.9055502159753814,154,38484,-0.009539083577692509,-0.003129803342744708,0.0033991551026701927,0.0016491413116455078,0.04880519211292267,9.792439460754395,0.010599247137342711,9.792561220589027,449,1
1.9105592720443383,155,38489,0.005343067925423384,-0.01169502828270197,0.0012214032467454672,0.01940418779850006,0.07187419384717941,9.779152870178223,0.012915645058611957,9.779436245538914,449,1
1.9154657199978828,156,38494,-0.010386303067207336,0.00036391723551787436,0.0182599276304245,0.073294498026371,0.00017514824867248535,9.783388137817383,0.021010299479696324,9.7836626868113,449,1
1.9205020479857922,157,38499,-0.01191929541528225,-0.0013404301134869456,-0.013651265762746334,0.01785224676132202,0.032727986574172974,9.796114921569824,0.01817205032490944,9.796185858813756,449,1
1.9254897660575807,158,38504,-0.01058894582092762,-0.000978230033069849,0.004437061958014965,-0.0370534211397171,-0.00935220718383789,9.84622573852539,0.011522596340035692,9.846299899647443,449,1
1.930563829955645,159,38509,-0.012922044843435287,-0.0012550137471407652,-0.0093759186565876,0.018224060535430908,0.0063195377588272095,9.821767807006836,0.016014435772021825,9.821786747211311,449,1
1.935433282982558,160,38514,0.005029352847486734,-0.0004057668847963214,-0.02031180076301098,-0.01916961371898651,0.031837061047554016,9.841548919677734,0.02092912532968288,9.841619084833361,449,1
1.9404873460298404,161,38519,0.0013320656726136804,-0.011353363282978535,0.018322795629501343,0.04297187924385071,0.03093022108078003,9.795783042907715,0.02159625190795649,9.795926126951967,449,1
1.9454636110458523,162,38524,0.00018954028200823814,-0.015719985589385033,0.013098969124257565,-0.0041763633489608765,0.021284490823745728,9.762560844421387,0.0204630609774596,9.762584940096044,449,1
1.95051041606348,163,38529,-0.006717406678944826,-0.007902038283646107,-0.022120872512459755,0.023945525288581848,0.026520326733589172,9.844614028930664,0.024431511665041088,9.844678872087695,449,1
1.9555254629813135,164,38534,-0.008241340517997742,0.006775227375328541,0.019165772944688797,0.035111427307128906,0.031791821122169495,9.749210357666016,0.02193513738476141,9.749325419240048,449,1
1.960656718001701,165,38539,0.007536548655480146,-0.016935337334871292,0.005556526593863964,0.030989252030849457,0.0388982892036438,9.835288047790527,0.01935149100381215,9.835413788634192,449,1
1.965503202052787,166,38544,-6.16191464359872e-05,-0.005410516168922186,-0.0041531724855303764,-0.012385249137878418,0.020532995462417603,9.814751625061035,0.006821020732114986,9.814780917572083,449,1
1.9705282700015232,167,38549,-0.002960983896628022,-0.002874959260225296,0.01608479954302311,-0.009113147854804993,0.027277886867523193,9.793027877807617,0.01660583008233199,9.793070108402826,449,1
1.9756801780313253,168,38554,-0.0032592550851404667,0.00950066838413477,-0.0044047837145626545,-0.041194796562194824,-0.002929404377937317,9.808462142944336,0.010967568692622278,9.808549087517786,449,1
1.9805339210433885,169,38559,-0.004102885257452726,-0.011501788161695004,0.010946234688162804,-0.011960342526435852,-0.009391799569129944,9.844063758850098,0.01639953817034702,9.84407550478959,449,1
1.9855466400040314,170,38564,0.008521982468664646,-0.005326504819095135,-1.8223858205601573e-05,0.01590348780155182,0.010983914136886597,9.785807609558105,0.010049685114125675,9.785826696737447,449,1
1.990503626060672,171,38569,0.005404687020927668,-0.006284512113779783,0.0053745754994452,0.013949200510978699,0.026915401220321655,9.774747848510742,0.009878856011789292,9.774794858255754,449,1
1.995464907027781,172,38574,0.008396402932703495,-0.00017176935216411948,-0.008644294925034046,-0.01573064923286438,-0.023995205760002136,9.831846237182617,0.012052092003864893,9.831888102232792,449,1
2.00063007499557,173,38579,0.016904346644878387,-0.01617009937763214,-0.00951430480927229,0.006697103381156921,0.0016917288303375244,9.769973754882812,0.025253733295820886,9.769976196707907,449,1
2.0055520840687677,174,38584,0.008553494699299335,-0.007413976825773716,0.002154280198737979,0.033762842416763306,0.03957875072956085,9.77958869934082,0.011522597238414874,9.779727068549104,449,1
2.0106717699673027,175,38589,0.005405623931437731,-0.012674819678068161,0.005502466112375259,0.045979343354701996,0.04987460374832153,9.755868911743164,0.01483741747331773,9.756104745195755,449,1
2.0156894420506433,176,38594,0.006187478080391884,0.003982172347605228,-0.014023039489984512,0.07883305102586746,0.012948304414749146,9.793821334838867,0.01583629433103044,9.794147162834864,449,1
2.0205002810107544,177,38599,-0.0022547875996679068,-0.0023003106471151114,-0.008445666171610355,0.022683382034301758,0.03017909824848175,9.758399963378906,0.00903906927040228,9.758472993202627,449,1
2.0254034000681713,178,38604,-0.0012174030998721719,-0.025774221867322922,-0.01012220699340105,-0.002353474497795105,0.005173474550247192,9.764652252197266,0.027717353004766212,9.764653906310365,449,1
2.0305355159798637,179,38609,-0.0020808472763746977,-0.018041612580418587,0.003588366787880659,-0.010431766510009766,0.00998370349407196,9.825702667236328,0.018512322547262382,9.825713276959748,449,1
2.0356682590208948,180,38614,-0.0001240187557414174,-0.005495776422321796,-0.008412920869886875,0.05000825226306915,0.09354225546121597,9.785451889038086,0.010049685402981625,9.786026755099856,449,1
2.0404952679527923,181,38619,-0.006501817610114813,0.011567294597625732,-0.007595425006002188,-0.0011988133192062378,0.017517730593681335,9.843367576599121,0.015289421753789901,9.843383237285916,449,1
2.045513533987105,182,38624,-0.00341400527395308,0.0007671085186302662,-0.014883632771670818,0.012156546115875244,0.016151219606399536,9.774989128112793,0.015289421570873377,9.775010030594933,449,1
2.050574944005348,183,38629,0.0010345748160034418,-0.004302991088479757,-0.002060213591903448,0.04753447324037552,0.06749193370342255,9.739338874816895,0.00488165519078401,9.739688722222127,449,1
2.0555522850481793,184,38634,-0.004450296983122826,0.01678566262125969,-0.013057884760200977,0.0041055828332901,0.013821065425872803,9.837977409362793,0.021727217200631924,9.837987974417969,449,1
2.0605668360367417,185,38639,0.009118042886257172,0.0014892453327775002,-0.0321311391890049,-0.014910012483596802,-0.016353577375411987,9.765266418457031,0.0334330175622846,9.765291494441415,449,1
2.0655376779614016,186,38644,-0.004463711753487587,0.0018536308780312538,-0.013824410736560822,-0.003543063998222351,0.004205480217933655,9.805974006652832,0.014644965082353465,9.805975548537603,449,1
2.0705475360155106,187,38649,-0.012013519182801247,0.0027918843552470207,-0.02012614719569683,-0.05398888885974884,-0.01760329306125641,9.7927885055542,0.02360468305975452,9.792953149615357,449,1
2.075511715025641,188,38654,-0.0030854707583785057,-0.005175582133233547,0.0076079340651631355,0.00793527066707611,0.029642626643180847,9.731700897216797,0.009705021430090962,9.731749277839267,449,1
2.0805003789719194,189,38659,0.005450238008052111,0.0022998424246907234,0.008398866280913353,0.029673248529434204,0.05145561695098877,9.745306968688965,0.010273038709529251,9.745487986559308,449,1
2.0856034730095416,190,38664,-0.006344569846987724,0.0032600355334579945,0.003224465064704418,0.04790445417165756,0.053642019629478455,9.764739990234375,0.007828063181669771,9.765004832558038,449,1
2.090519419987686,191,38669,0.0013777726562693715,-0.003834059229120612,0.021368399262428284,0.022944055497646332,0.044890761375427246,9.77605152130127,0.02175331594730592,9.776181512087243,449,1
2.0956291189650074,192,38674,0.022494515404105186,-0.010483269579708576,0.00840504840016365,-0.04817967116832733,-0.01050102710723877,9.699222564697266,0.026202041961562124,9.69934791168029,449,1
2.10060455405619,193,38679,-0.0013470412231981754,0.007071842905133963,-0.019302470609545708,0.008833721280097961,-0.003224015235900879,9.793375968933105,0.020601234277689884,9.79338048366254,449,1
2.105568586033769,194,38684,-0.007614235859364271,0.014698658138513565,-0.010838581249117851,0.04279344528913498,-0.0069966912269592285,9.783978462219238,0.019786409029650856,9.784074549072987,449,1
2.110641779960133,195,38689,0.015805810689926147,-0.001301858457736671,-0.011926990002393723,-0.03137455880641937,-0.009605750441551208,9.743833541870117,0.01984367852810975,9.743888788623103,449,1
2.115513275959529,196,38694,0.002178661059588194,-0.010586878284811974,0.003376761684194207,-0.00032773613929748535,0.039583757519721985,9.780088424682617,0.01132391607624462,9.780168535147094,449,1
2.1206077879760414,197,38699,-0.007457456551492214,0.00958655308932066,-8.263633935712278e-05,0.005115434527397156,-0.014167457818984985,9.784674644470215,0.01214588354613776,9.78468623833538,449,1
2.1256780329858884,198,38704,0.0002038914244621992,-0.0071782623417675495,0.013993385247886181,0.03579150140285492,0.05425426363945007,9.795421600341797,0.015728440884460418,9.795637237318376,449,1
2.1305851279757917,199,38709,0.0020538619719445705,-0.010757398791611195,-0.005142733454704285,0.056315429508686066,0.06250481307506561,9.848804473876953,0.012099077863527149,9.84916381445232,449,1
2.1356737150344998,200,38714,-0.019048528745770454,0.004433535039424896,0.008715033531188965,0.0629466101527214,0.02048604190349579,9.811853408813477,0.02141155038230533,9.812076705248856,449,1
2.1406706559937447,201,38719,-0.025593243539333344,-0.010689395479857922,-0.0015423254808411002,-0.04813814163208008,0.01712961494922638,9.824317932128906,0.02777869792623993,9.824450800728643,449,1
2.145560421049595,202,38724,0.004450141452252865,-0.015720609575510025,0.013036569580435753,-0.0047975629568099976,0.08748715370893478,9.842020034790039,0.02090199681361136,9.842410039410213,449,1
2.150694968062453,203,38729,-0.0009531412506476045,-0.01902155950665474,0.007853830233216286,0.005659639835357666,0.03861472010612488,9.821305274963379,0.020601234274700037,9.821382816699257,449,1
2.1556502090534195,204,38734,-0.010870369151234627,0.0028983033262193203,-0.014817063696682453,-0.01755906641483307,0.029791370034217834,9.829000473022461,0.01860404429812057,9.829061305395223,449,1
2.160663196002133,205,38739,-0.002083656843751669,0.0011293085990473628,0.0032046956475824118,-0.00726686418056488,0.03093758225440979,9.796518325805664,0.003985854732429311,9.796569871600823,449,1
2.165431906003505,206,38744,-0.0008299028850160539,-0.008200527168810368,0.01616017520427704,0.014109238982200623,0.010984167456626892,9.785834312438965,0.018140800623949467,9.785850648414126,449,1
2.1704879630124196,207,38749,-0.00848984532058239,-0.0010211722692474723,0.0022759882267564535,0.013707965612411499,0.0588856041431427,9.757956504821777,0.008848750690308136,9.758143807747976,449,1
2.17553455196321,208,38754,0.003258630633354187,-0.0052404641173779964,0.004319523461163044,-0.006964921951293945,-0.05657710134983063,9.818009376525879,0.007532557381241686,9.818174860740921,449,1
2.1804625570075586,209,38759,-0.0062952726148068905,-0.01371683832257986,0.006760316900908947,-0.020268037915229797,-0.00555245578289032,9.766922950744629,0.01653735152505528,9.766945558817676,449,1
2.1856245800154284,210,38764,-0.005294707138091326,0.001108461758121848,0.0021865584421902895,-0.004570528864860535,0.02074591815471649,9.735651969909668,0.0058346935625178675,9.73567514669939,449,1
2.1906193209579214,211,38769,-0.009772926568984985,-0.004514580592513084,-0.012553583830595016,-0.03604647517204285,-0.017605915665626526,9.792526245117188,0.01653735162112861,9.792608415429857,449,1
2.1956712850369513,212,38774,-2.979495911858976e-05,-0.009628091007471085,-0.0019380382727831602,0.03399909287691116,0.041695982217788696,9.795699119567871,0.009821253307725384,9.795846861520056,449,1
2.2006856680382043,213,38779,0.0031308657489717007,0.014824987389147282,-0.004604958463460207,0.040886737406253815,0.043094053864479065,9.775824546813965,0.015836294196454354,9.776005032366987,449,1
2.205668780952692,214,38784,0.006345818284898996,-0.011780445463955402,-0.0030539443250745535,-0.027158036828041077,0.009196147322654724,9.786474227905273,0.013724972895231558,9.786516231097972,449,1
2.2106340860482305,215,38789,-0.006641124375164509,0.003920100163668394,-0.01703065261244774,0.03864866495132446,0.02274911105632782,9.745749473571777,0.018695316169176444,9.745852658591804,449,1
2.21567586902529,216,38794,-0.0074387346394360065,-0.011693155393004417,0.0014086021110415459,-0.009035363793373108,0.03456190228462219,9.798266410827637,0.013930140558807156,9.798331532482534,449,1
2.2208038549870253,217,38799,0.003243498969823122,-0.008456932380795479,0.003318531671538949,-0.018214166164398193,0.016335219144821167,9.784405708312988,0.009646379803615336,9.784436297513585,449,1
2.2256721609737724,218,38804,0.0018977068830281496,-0.00990549847483635,-0.015813417732715607,-0.04322764277458191,0.01110030710697174,9.792057037353516,0.018755915649155658,9.792158744051397,449,1
2.230631764046848,219,38809,0.003965295385569334,-0.007860968820750713,-0.020146993920207024,-0.014753669500350952,-0.007167801260948181,9.775850296020508,0.02198680882521361,9.775864056866938,449,1
2.235614152974449,220,38814,0.004135801922529936,-0.00017114497313741595,-0.008581895381212234,0.05413491278886795,0.008144259452819824,9.822999954223633,0.009528015348345341,9.823152498990444,449,1
2.240689439000562,221,38819,0.001927501754835248,-0.00027740816585719585,-0.013875380158424377,-0.018109843134880066,0.02186107635498047,9.791473388671875,0.014011366558839795,9.791514540363368,449,1
2.245754693984054,222,38824,0.014662661589682102,-0.001408277777954936,-0.017236074432730675,-0.005155712366104126,0.020603761076927185,9.81823444366455,0.02267287262443938,9.818257416013367,449,1
2.250622565043159,223,38829,-0.006127107888460159,0.009948753751814365,0.018005693331360817,-0.009374096989631653,0.014360308647155762,9.775341033935547,0.02146448565966775,9.77535607647634,449,1
2.2555461700540036,224,38834,0.006217272952198982,0.013610262423753738,-0.012085001915693283,0.012649253010749817,0.06168529391288757,9.808176040649414,0.019233850303771692,9.808378169883952,449,1
2.2605135389603674,225,38839,0.013880651444196701,-0.017000216990709305,0.00226811645552516,-0.020646408200263977,0.017915576696395874,9.863389015197754,0.022064093330619896,9.863426894704682,449,1
2.265630476991646,226,38844,-0.0018014537636190653,-0.00807248055934906,0.02256539836525917,0.033189207315444946,0.008289575576782227,9.740734100341797,0.024033463783366037,9.740794169579141,449,1
2.270846739062108,227,38849,0.010885968804359436,-0.0028769883792847395,0.01588200032711029,-0.03175008296966553,0.04191969335079193,9.717677116394043,0.019468418357287208,9.71781939876162,449,1
2.2756989100016654,228,38854,-0.00010560916416579857,-0.024645380675792694,-0.006964311935007572,0.011023461818695068,-0.011656060814857483,9.820436477661133,0.02561069274108728,9.82044958198155,449,1
2.2806541189784184,229,38859,-0.00844413973391056,0.006498131435364485,0.0053215934894979,-0.014391288161277771,0.031010448932647705,9.800210952758789,0.011910019532500593,9.80027058175902,449,1
2.285636791959405,230,38864,0.01676160655915737,-0.0003861688601318747,-0.019418463110923767,0.04346957802772522,0.04237686097621918,9.82965087890625,0.025654966194147092,9.829838340671861,449,1
2.290637918980792,231,38869,-0.014708055183291435,-0.00824112817645073,0.014233099296689034,0.027121707797050476,-0.02967098355293274,9.816971778869629,0.022064092922321688,9.81705408263709,449,1
2.295600831042975,232,38874,-0.011760642752051353,-0.01923314854502678,-0.00263954047113657,-0.03822097182273865,0.06621314585208893,9.76574993133545,0.022697883046557704,9.76604918811845,449,1
2.300576132023707,233,38879,-0.0074708713218569756,-0.005345478653907776,-0.0008491622866131365,0.035638563334941864,0.0217454731464386,9.785303115844727,0.009225461340016266,9.78539217618586,449,1
2.305671761976555,234,38884,-0.00442939018830657,-0.019404763355851173,-0.011268235743045807,-0.02699984610080719,0.005823448300361633,9.797309875488281,0.022872198737718813,9.797348809784195,449,1
2.310651086969301,235,38889,0.012768544256687164,-0.015998953953385353,-0.0009324097773060203,-0.011070847511291504,0.06653235852718353,9.781500816345215,0.0204907695812124,9.781733350411772,449,1
2.3156256939982995,236,38894,-0.004228152334690094,-0.00847715511918068,0.002362794242799282,-0.009906202554702759,0.010701805353164673,9.861580848693848,0.009763310284621806,9.861591631010286,449,1
2.3207655310397968,237,38899,-0.008504197932779789,-0.009562896564602852,0.0013815718702971935,-0.05737346410751343,0.025742247700691223,9.806331634521484,0.012871639911758935,9.806533256147006,449,1
2.3256711120484397,238,38904,-0.00872322078794241,-0.005601102951914072,-0.013612804934382439,-0.001409575343132019,0.020818635821342468,9.828944206237793,0.017110680681220077,9.828966355209259,449,1
2.3306384600000456,239,38909,-0.006282794289290905,0.007605500053614378,0.007398952730000019,0.012396737933158875,-0.008642643690109253,9.79163646697998,0.012331327448731926,9.79164812868056,449,1
2.33569014898967,240,38914,-0.013799685053527355,-0.003129179123789072,0.003461554879322648,1.0713934898376465e-05,0.061579421162605286,9.802977561950684,0.014567272625576349,9.8031709719526,449,1
2.3406789200380445,241,38919,-0.020205561071634293,-0.007409762125462294,0.002575477585196495,-0.059687450528144836,-0.014445215463638306,9.771269798278809,0.021674924631179877,9.77146277313463,449,1
2.3458640980534256,242,38924,0.009462333284318447,-0.005497181322425604,-0.008553319610655308,0.05056455731391907,0.0637969970703125,9.823732376098633,0.013889349518143976,9.824069657148204,449,1
2.350634547066875,243,38929,-0.004259040113538504,-0.010649887844920158,0.0002755503519438207,0.019569218158721924,0.021855562925338745,9.790921211242676,0.011473249835794763,9.790965161039635,449,1
2.355610709055327,244,38934,0.006297457963228226,-0.0011938782408833504,-0.0064619057811796665,-0.03623725473880768,0.02878868579864502,9.779035568237305,0.009101623392424261,9.779145083897228,449,1
2.360628757975064,245,38939,-0.0033048060722649097,0.0009163140202872455,-0.00742907403036952,0.006983503699302673,0.020027413964271545,9.789347648620605,0.00818245168074733,9.789370625948727,449,1
2.365711660007946,246,38944,-0.01076023280620575,-0.00334279821254313,-0.007234614342451096,0.022235631942749023,-0.011047229170799255,9.850775718688965,0.013390166340173938,9.850807008794373,449,1
2.3708458920009434,247,38949,-0.02025126852095127,-0.01492906641215086,-0.00047012779396027327,-0.009065046906471252,0.057848960161209106,9.796006202697754,0.025163702445958478,9.796181204967578,449,1
2.375740902032703,248,38954,0.0029943690169602633,-0.01199312787503004,-0.013656513765454292,0.005584225058555603,0.015184029936790466,9.816389083862305,0.01842014468625577,9.816402415554572,449,1
2.3806123830145225,249,38959,0.018094295635819435,-0.01599973440170288,-0.0010104093234986067,-0.020533964037895203,0.015617385506629944,9.748553276062012,0.024174696740238165,9.748587411652446,449,1
2.3855422489577904,250,38964,0.01617942750453949,0.004534959327429533,0.013524920679628849,0.016065627336502075,-0.019299909472465515,9.797182083129883,0.021569960822086377,9.797214265335251,449,1
2.390642293030396,251,38969,0.006294804625213146,0.01691199094057083,-0.00682426244020462,-0.03077174723148346,0.0019844770431518555,9.784876823425293,0.01929275928156318,9.784925410455731,449,1
2.3958336890209466,252,38974,0.009836730547249317,-0.004985619802027941,0.01700516790151596,0.0711352527141571,-0.020062074065208435,9.758695602416992,0.020268039077037267,9.758975487807481,449,1
2.4006824609823525,253,38979,0.005280511919409037,-0.010715237818658352,-0.003059659618884325,-0.010428085923194885,-0.015133336186408997,9.826205253601074,0.012331327772176786,9.826222440426305,449,1
2.405549386050552,254,38984,0.008302646689116955,0.0007653913926333189,-0.015055231750011444,0.011146977543830872,0.04234568774700165,9.828329086303711,0.01720987417370547,9.828426631005732,449,1
2.410678907064721,255,38989,7.862390339141712e-05,-0.004153629299253225,0.005409944802522659,0.014801949262619019,-0.05266895890235901,9.833767890930176,0.006821020513100754,9.833920075413626,449,1
2.415657500969246,0,38994,-0.005435262341052294,0.0019816772546619177,-0.007419189438223839,0.026743292808532715,0.041589319705963135,9.790421485900879,0.009408160998726468,9.79054634567517,449,1
2.420777622028254,1,38999,-0.0010791892418637872,-0.01067167054861784,-0.0008361863438040018,-0.003012239933013916,-0.030957907438278198,9.842569351196289,0.010758643470231562,9.842618498079203,449,1
2.4256940609775484,2,39004,-0.0022407486103475094,0.00837151613086462,-0.007593879476189613,0.023026585578918457,0.01988142728805542,9.781935691833496,0.011522597023370846,9.781982998040862,449,1
2.4306380409980193,3,39009,-0.001143774134106934,0.004153785295784473,-0.00539434514939785,0.0026884227991104126,-0.0006763190031051636,9.741360664367676,0.006903702712614404,9.74136105882101,449,1
2.4356834290083498,4,39014,0.009431757032871246,-0.009800015948712826,-0.010597932152450085,0.021514028310775757,0.07051073014736176,9.800688743591309,0.017242810653431105,9.80096599653511,449,1
2.440645421971567,5,39019,0.004107255954295397,-0.018319644033908844,-0.010349412448704243,-0.015973448753356934,0.018739446997642517,9.814840316772461,0.021438032723098015,9.814871204538601,449,1
2.445871021016501,6,39024,0.0010966622503474355,-0.002087628236040473,0.002156904200091958,0.015715599060058594,0.03764371573925018,9.772712707519531,0.003195793402525402,9.772797843662898,449,1
2.45067069795914,7,39029,-0.0072211166843771935,-0.006069488357752562,0.016211144626140594,-0.0020420700311660767,0.03251543641090393,9.785639762878418,0.01875591707125865,9.785693996466586,449,1
2.455677494057454,8,39034,0.018139846622943878,-0.007415381725877523,0.002013880992308259,0.07399928569793701,0.03343793749809265,9.831177711486816,0.019700193864416342,9.831513066908018,449,1
2.46071249502711,9,39039,-0.006482159253209829,-0.01610272005200386,-0.005976296029984951,0.021356098353862762,0.07208937406539917,9.78989028930664,0.018358433917281584,9.79017899925484,449,1
2.465678217005916,10,39044,0.010544019751250744,-0.011866329237818718,-0.00737609202042222,0.02033364772796631,0.006750151515007019,9.843267440795898,0.01750408111238101,9.84329075730307,449,1
2.4708094920497388,11,39049,-9.344334102934226e-05,-0.0011929416796192527,-0.006368306465446949,0.06139831990003586,0.004015043377876282,9.706302642822266,0.006479750670111385,9.706497662304276,449,1
2.4758378480328247,12,39054,-0.011702301912009716,0.008543442003428936,0.0010660153347998857,0.041101694107055664,0.011087954044342041,9.790821075439453,0.014528271060240051,9.790913625563894,449,1
2.4806451769545674,13,39059,-0.003319001290947199,-0.00869046151638031,-0.0083021754398942,-0.0025405585765838623,0.026451021432876587,9.751664161682129,0.012468600882688433,9.75170036625451,449,1
2.4856331719784066,14,39064,0.0012985244393348694,0.004579775035381317,0.015873193740844727,0.02138867974281311,0.02906748652458191,9.792545318603516,0.016571625889714142,9.792611817656086,449,1
2.4906007980462164,15,39069,-0.013862865045666695,0.002110816305503249,-0.0009047683561220765,0.0017387568950653076,-0.024644121527671814,9.799293518066406,0.014051803390603843,9.799324660874325,449,1
2.495610187994316,16,39074,-0.007205984555184841,-0.002853019628673792,0.01721213571727276,-0.00457395613193512,0.04406888782978058,9.735185623168945,0.018876534384281905,9.735286441882673,449,1
2.500609250040725,17,39079,0.018105212599039078,0.015973111614584923,-0.0005849244771525264,-0.02983178198337555,0.044540777802467346,9.848630905151367,0.02415121434943517,9.848776803339906,449,1
2.505571322981268,18,39084,-0.0032573819626122713,-0.003279945580288768,-0.004149002954363823,-0.03478619456291199,0.03908608853816986,9.755473136901855,0.006211505918481228,9.755613457208272,449,1
2.5107074909610674,19,39089,0.008271447382867336,0.0007227612077258527,-0.017185106873512268,-0.014600187540054321,0.02175283432006836,9.786039352416992,0.01908578329084177,9.786074420232618,449,1
2.515656279050745,20,39094,0.0064377011731266975,6.300865788944066e-05,0.0031012115068733692,-0.00518094003200531,0.01339152455329895,9.816582679748535,0.007146011425670245,9.816593181109647,449,1
2.520641179056838,21,39099,-0.01259163860231638,-0.019978316500782967,0.013371428474783897,0.06663782149553299,0.036775797605514526,9.818653106689453,0.027138120648878074,9.81894810496754,449,1
2.5256868510041386,22,39104,-0.01187218353152275,-0.0034065870568156242,-0.010413824580609798,-0.02162185311317444,0.03811599314212799,9.796585083007812,0.016155535261251377,9.796683092867527,449,1
2.5307346229674295,23,39109,0.017247077077627182,-0.012506015598773956,0.013850362040102482,0.012914672493934631,0.04410359263420105,9.8264741897583,0.02541052188602789,9.82658164967019,449,1
2.535689090960659,24,39114,-0.005170844495296478,0.007669289596378803,0.010578162968158722,0.024841830134391785,0.05579856038093567,9.782984733581543,0.014051802997785964,9.783175399294166,449,1
2.5406847490230575,25,39119,0.014989790506660938,0.00223449245095253,0.005063655786216259,0.047904714941978455,0.05184793472290039,9.764775276184082,0.01597896698376424,9.765030428238543,449,1
2.5456537320278585,26,39124,-0.00307158799842,0.006561296060681343,0.008438404649496078,-0.0460277795791626,0.012177988886833191,9.845926284790039,0.01112168745544431,9.846041400757246,449,1
2.55071856896393,27,39129,0.0022401243913918734,-0.00411131139844656,0.007508619222790003,-0.0034878700971603394,-0.013663455843925476,9.809920310974121,0.008848751399873147,9.809930446385744,449,1
2.555686063016765,28,39134,0.011625237762928009,-0.015040324069559574,-0.006262809503823519,0.06608574092388153,0.037815868854522705,9.780945777893066,0.02001450184349245,9.781242133552103,449,1
2.560662809992209,29,39139,-0.010493629612028599,-0.012565902434289455,0.011061148717999458,0.014182031154632568,0.052355602383613586,9.790390014648438,0.0197577118458648,9.790540275083723,449,1
2.5656580020440742,30,39144,0.00758147519081831,-0.004090776666998863,0.008495557121932507,-0.00819551944732666,0.04288715124130249,9.8555269241333,0.01209907891619333,9.855623644731825,449,1
2.5706661290023476,31,39149,0.000847688177600503,-0.006688874214887619,-0.014796826988458633,-0.023596882820129395,0.01633600890636444,9.784483909606934,0.016260556645927283,9.784526000549173,449,1
2.5757122590439394,32,39154,-0.004355761222541332,0.010523245669901371,-0.006540372967720032,0.036348856985569,0.017332687973976135,9.833846092224121,0.01313346236960291,9.833928544942157,449,1
2.5806313330540434,33,39159,-7.581420504720882e-05,-0.015017291530966759,-0.005026273429393768,-0.01998870074748993,0.06122325360774994,9.785327911376953,0.015836294304753327,9.785539850622076,449,1
2.5855891359969974,34,39164,0.005107976496219635,-0.0045593963004648685,-0.014901856891810894,0.0019077211618423462,0.07786944508552551,9.80980396270752,0.016399538326874838,9.81011320406804,449,1
2.5906439849641174,35,39169,0.002144807716831565,0.007476361468434334,0.0008845316478982568,0.00674043595790863,0.06455613672733307,9.772305488586426,0.007828063437722221,9.772521040679443,449,1
2.5959289390593767,36,39174,0.0033993420656770468,-0.007178730797022581,0.013946585357189178,-0.029611319303512573,0.022651389241218567,9.74136734008789,0.016049826960468003,9.741438680718392,449,1
2.6007334489841014,37,39179,-0.0010027505923062563,8.541638817405328e-05,0.004275348037481308,0.023129843175411224,0.0325835645198822,9.788859367370605,0.004392198259565991,9.788940922923246,449,1
2.6056614309782162,38,39184,-0.0024109426885843277,-0.0014484103303402662,-0.019116349518299103,-0.09410077333450317,0.03536298871040344,9.749236106872559,0.019322146776133572,9.749754364293507,449,1
2.6106840210268274,39,39189,0.01782628893852234,0.002808828605338931,-0.019498009234666824,-0.02151070535182953,-0.003004103899002075,9.804585456848145,0.026567620510106034,9.804609513678916,449,1
2.6156986739952117,40,39194,0.016261639073491096,-0.02411484532058239,0.01942511275410652,0.03053911030292511,0.061610862612724304,9.804326057434082,0.0349757298094244,9.80456719983758,449,1
2.6209233449772,41,39199,0.00548315467312932,-0.009373090229928493,0.010763205587863922,0.028957970440387726,0.04216352105140686,9.819096565246582,0.01528942118441591,9.819229790782813,449,1
2.6257048289990053,42,39204,-0.0030375784263014793,-0.01256699487566948,0.010951949283480644,0.03706727921962738,0.005095884203910828,9.760486602783203,0.01694406787076136,9.76055831775698,449,1
2.6306625390425324,43,39209,-0.011623521335422993,0.0033247610554099083,0.006497275549918413,-0.008692696690559387,0.027852371335029602,9.821730613708496,0.013724972636846003,9.82177395208337,449,1
2.6357320649549365,44,39214,-0.018294285982847214,-0.0034482809714972973,-0.012450099922716618,0.02239038050174713,0.05669523775577545,9.738127708435059,0.022395904298916323,9.738318486520855,449,1
2.6407250160118565,45,39219,0.0018964579794555902,-0.0013850894756615162,-0.015983939170837402,-0.01650165021419525,0.03596208989620209,9.778602600097656,0.016155535804808805,9.778682650899666,449,1
2.645881243981421,46,39224,-0.001048769918270409,-0.005303784739226103,0.0011871122987940907,-0.047026872634887695,0.014401748776435852,9.77768611907959,0.0055352765523923745,9.777809815104778,449,1
2.650615061982535,47,39229,0.002114388393238187,0.002108474960550666,-0.0011387669946998358,0.03149744123220444,0.026374205946922302,9.747575759887695,0.003195793360802164,9.747662329107103,449,1
2.6556586590595543,48,39234,0.004181820899248123,0.005218056030571461,-0.0054936595261096954,-0.031168028712272644,0.015798494219779968,9.757680892944336,0.008654249231469324,9.757743460809184,449,1
2.6607829419663176,49,39239,-1.4663338333775755e-05,-0.006411622278392315,-0.0009370465413667262,-0.01990172266960144,0.005714684724807739,9.79182243347168,0.006479750880624586,9.7918443260106,449,1
2.665673393988982,50,39244,0.005123264156281948,-0.002407978754490614,-0.013879549689590931,0.04450859874486923,-0.005310565233230591,9.778534889221191,0.014989599623837365,9.778637624801393,449,1
2.670976886060089,51,39249,0.004261693451553583,-0.007455982733517885,8.680589962750673e-05,0.03550585359334946,0.03053632378578186,9.776154518127441,0.008588436694867214,9.776266684937218,449,1
2.6757630390347913,52,39254,0.0020998811814934015,-0.0053681982681155205,-0.0020544982980936766,0.04762197285890579,0.008395195007324219,9.745905876159668,0.006119478480970287,9.746025840236713,449,1
2.6807250609854236,53,39259,-0.02241230010986328,-0.01816653646528721,-0.0025048565585166216,0.01631815731525421,0.0510280579328537,9.813720703125,0.02895873874563482,9.813866933268395,449,1
2.6857781530125067,54,39264,0.008491250686347485,-0.008564288727939129,-0.002084152540192008,0.07025548070669174,0.017076343297958374,9.82079029083252,0.012238957122430434,9.82105642843885,449,1
2.6907168329926208,55,39269,0.008318559266626835,-0.0013433959102258086,-0.013947663828730583,0.01195080578327179,-0.014635264873504639,9.761248588562012,0.016295412456371703,9.761266875792336,449,1
2.6958957209717482,56,39274,0.012766671366989613,-0.003218341851606965,-0.0011881906539201736,0.028963491320610046,0.004487961530685425,9.81985092163086,0.013219584679428496,9.819894660773231,449,1
2.7008725199848413,57,39279,-0.0010503308149054646,0.005346727091819048,0.0009739614906720817,0.026935383677482605,-0.013775646686553955,9.804091453552246,0.0055352765423638895,9.804138132082375,449,1
2.705736728035845,58,39284,-0.0012833927758038044,-0.0013633060734719038,-0.014872202649712563,0.034164898097515106,-0.013704895973205566,9.807574272155762,0.014989600132127212,9.807643354460197,449,1
2.7107128530042246,59,39289,-0.015617050230503082,-0.009092872962355614,0.024919383227825165,0.07144428044557571,0.02342657744884491,9.7793607711792,0.030782271798338867,9.779649798567329,449,1
2.7157060799654573,60,39294,-0.011247563175857067,-0.006814189255237579,0.032268911600112915,0.07342220097780228,0.025471702218055725,9.791854858398438,0.034845710043805864,9.792163254110472,449,1
2.720888133975677,61,39299,-0.006343320943415165,-0.0052603743970394135,0.0033949855715036392,0.0323459729552269,-0.02450495958328247,9.806022644042969,0.00891264194382985,9.806106610194183,449,1
2.725904806982726,62,39304,0.009681356139481068,-0.009458974935114384,0.006441058125346899,0.026397742331027985,0.06803368031978607,9.766562461853027,0.014989599504212487,9.76683509350571,449,1
2.730732580064796,63,39309,0.014990570954978466,-0.0030907634645700455,0.005170231219381094,-0.02484375238418579,0.04758955538272858,9.821572303771973,0.016155535497532354,9.821719019399545,449,1
2.735711410990916,64,39314,-0.010022525675594807,-0.004855622071772814,-0.029592575505375862,-0.015953227877616882,0.06003902852535248,9.815807342529297,0.03161880155324069,9.816003920948587,449,1
2.740719386958517,65,39319,-0.004198045469820499,-0.0009791665943339467,0.0043434626422822475,-0.05602778494358063,0.037690117955207825,9.775557518005371,0.006119478794067468,9.775790732493638,449,1
2.74589703802485,66,39324,0.016071632504463196,-0.005199706647545099,0.006262198556214571,0.07094815373420715,0.0012154877185821533,9.745707511901855,0.01801525607191023,9.745965833383007,449,1
2.7507465629605576,67,39329,-0.00958572793751955,-0.004258799832314253,0.00022565944527741522,0.0181407630443573,0.036711081862449646,9.815774917602539,0.010491638494015396,9.815860330294562,449,1
2.7557721220655367,68,39334,0.0020976958330720663,0.00954251829534769,-0.002352909417822957,-0.0522235631942749,0.0003012716770172119,9.790609359741211,0.010049684868373399,9.79074864483659,449,1
2.7607592430431396,69,39339,0.011780301108956337,-0.008436866104602814,0.004258669447153807,0.042971350252628326,0.03451837599277496,9.795710563659668,0.01510273052612656,9.79586563312387,449,1
2.7657206159783527,70,39344,0.009570595808327198,0.001042331219650805,-0.0012266512494534254,-0.020226240158081055,0.06807643175125122,9.76904010772705,0.009705020957505167,9.76929824131348,449,1
2.7708969969535246,71,39349,-0.0012209932319819927,-0.0012780458200722933,-0.010612454265356064,0.014581471681594849,0.01701270043849945,9.81801700592041,0.01075864355413935,9.81804257374325,449,1
2.775768685969524,72,39354,0.002413284033536911,-0.014527357183396816,0.019436076283454895,-0.010422557592391968,-0.05280889570713043,9.826959609985352,0.024385018102449568,9.827107030324644,449,1
2.7807366909692064,73,39359,0.0033684545196592808,-0.009351463057100773,0.011859342455863953,-0.05410189926624298,0.03607530891895294,9.784536361694336,0.015473860237341904,9.784752437171646,449,1
2.7857332000276074,74,39364,0.001958389300853014,0.0018953243270516396,-0.011788136325776577,0.008300527930259705,0.04808603227138519,9.75645637512207,0.01209907851836257,9.756578404590599,449,1
2.790740324067883,75,39369,0.0022710119374096394,-0.0019385789055377245,0.009595862589776516,0.013871699571609497,0.017837345600128174,9.769545555114746,0.010049684683348298,9.76957168705002,449,1
2.7959052439546213,76,39374,-0.009334412403404713,-0.015633320435881615,0.01749911718070507,0.05286780744791031,-0.0019018054008483887,9.859118461608887,0.025253733681811028,9.85926039122435,449,1
2.80078833096195,77,39379,-0.0011124182492494583,0.0031313642393797636,-0.0032431562431156635,-0.01589280366897583,0.006288617849349976,9.82047176361084,0.004643380102704251,9.820486637015536,449,1
2.8057326290290803,78,39384,-0.014032903127372265,-0.008774161338806152,-0.012405923567712307,0.01616731286048889,0.0041666775941848755,9.803890228271484,0.020683694470513107,9.803904444210195,449,1
2.810721948975697,79,39389,0.008523231372237206,-0.013846914283931255,0.00015229673590511084,-0.004958659410476685,-0.021056383848190308,9.709569931030273,0.01626055664812848,9.709594028854715,449,1
2.8157106910366565,80,39394,0.009695707820355892,-0.0009172505815513432,0.007335474714636803,-0.04843142628669739,0.04543985426425934,9.804010391235352,0.01219250950609195,9.804235316171194,449,1
2.820881617954001,81,39399,0.00428961543366313,0.014952722936868668,0.0017690632957965136,0.018935121595859528,0.04431679844856262,9.747401237487793,0.015656126875444442,9.74752037197323,449,1
2.825712761026807,82,39404,-0.0009387901518493891,-0.010479834862053394,0.008748246356844902,0.048360131680965424,-0.00674612820148468,9.79645824432373,0.013683569709880869,9.79657993104534,449,1
2.8307868289994076,83,39409,-0.01463036797940731,-0.006004450377076864,0.019515154883265495,0.035216785967350006,0.030141353607177734,9.756421089172363,0.025118566074947158,9.756531206963794,449,1
2.835674272966571,84,39414,-0.019266147166490555,-0.0011901319958269596,-0.006087508052587509,-0.01909288763999939,0.04629737138748169,9.84664249420166,0.020240024582462365,9.846769845668868,449,1
2.8407497350126505,85,39419,0.0063116527162492275,0.00841289758682251,-0.005588804371654987,0.0533200278878212,0.00882527232170105,9.767353057861328,0.011910018476960065,9.767502580891318,449,1
2.845955603988841,86,39424,0.005185351707041264,-0.0001926161494338885,-0.009662431664764881,0.03358074277639389,0.02676890790462494,9.76728343963623,0.010967568508242358,9.767377848271662,449,1
2.850923637044616,87,39429,0.0010330139193683863,0.0063475207425653934,-0.0022733642254024744,-0.023831814527511597,0.00524844229221344,9.7685546875,0.006821020615439199,9.76858516798663,449,1
2.85577333800029,88,39434,0.0021145446226000786,0.0010434238938614726,-0.0011174518149346113,0.008955910801887512,0.05974811315536499,9.801088333129883,0.0026093545067599772,9.801274537486368,449,1
2.8607598789967597,89,39439,-0.009693366475403309,-0.015058517456054688,-0.007015748415142298,-0.021941155195236206,0.06459622085094452,9.774518966674805,0.019233851081500764,9.77475703615824,449,1
2.8657398420618847,90,39444,-0.009600702673196793,-0.008540320210158825,-0.0007540172664448619,0.027220770716667175,0.011736348271369934,9.823322296142578,0.012871639489562792,9.823367021857681,449,1
2.8709072649944574,91,39449,-0.003491068258881569,-0.005729774013161659,-0.02008042484521866,0.04936576634645462,-0.006029456853866577,9.742579460144043,0.02117171060152079,9.742706393526262,449,1
2.8757917180191725,92,39454,-0.0010011896956712008,-0.010565094649791718,0.004488498438149691,0.0016063153743743896,-0.017647355794906616,9.790180206298828,0.01152259623500919,9.790196243243594,449,1
2.8807472940534353,93,39459,0.0010503308149054646,-0.005346727091819048,-0.0009739614906720817,0.06661945581436157,-0.017082318663597107,9.817936897277832,0.0055352765423638895,9.818177777797334,449,1
2.885712987044826,94,39464,0.003507761051878333,-0.0017042690888047218,0.021294567734003067,0.014370173215866089,0.023901760578155518,9.803521156311035,0.021648730579462955,9.803560825448836,449,1
2.8907381769968197,95,39469,0.005465838126838207,0.002321157604455948,0.00946380291134119,-0.006734773516654968,0.03459611535072327,9.710277557373047,0.011172588088631563,9.710341522809296,449,1
2.8957431280286983,96,39474,-0.013880651444196701,0.017000216990709305,-0.00226811645552516,0.017537415027618408,0.02870894968509674,9.774659156799316,0.022064093330619896,9.77471704942494,449,1
2.9006208010250703,97,39479,-0.008707776665687561,-0.0045147365890443325,-0.012569183483719826,0.07579588890075684,0.017291009426116943,9.831474304199219,0.015943418528514004,9.831781679325001,449,1
2.9056400100234896,98,39484,-0.0021006616298109293,0.010693454183638096,0.0019479229813441634,0.026613749563694,0.02885127067565918,9.781702995300293,0.011070553084727779,9.781781748523741,449,1
2.9106143770040944,99,39489,0.0064854370430111885,-0.006263352930545807,0.006423912476748228,-0.027107074856758118,0.020032405853271484,9.789846420288086,0.011070552609529482,9.789904444049442,449,1
2.915694975061342,100,39494,-0.004446239210665226,-0.010905669070780277,-0.012503692880272865,-0.025157243013381958,0.03460018336772919,9.800296783447266,0.017176873890321742,9.800390150560942,449,1
2.920796853955835,101,39499,0.01495874673128128,0.0011268110247328877,0.0029550970066338778,0.04609130322933197,0.003372296690940857,9.763978004455566,0.015289421348589176,9.764087374256258,449,1
2.92569652502425,102,39504,0.001128642586991191,-0.007370254024863243,0.004393353592604399,-0.07082395255565643,0.006582573056221008,9.745881080627441,0.00865424949200293,9.746140641313133,449,1
2.930753721971996,103,39509,-0.0001890720013761893,0.012524832971394062,-0.013035024516284466,-0.0021947622299194336,-0.001787424087524414,9.775558471679688,0.018078137440653595,9.77555888147039,449,1
2.9357338319532573,104,39514,-0.005202044267207384,0.007626659236848354,0.008448289707303047,-0.003285542130470276,0.04044601321220398,9.82319450378418,0.012514023919248043,9.823278319071875,449,1
2.940718724974431,105,39519,0.007284608669579029,-0.0013006096705794334,-0.0118021909147501,0.051389917731285095,0.039145275950431824,9.757800102233887,0.013930140680277443,9.758013942981908,449,1
2.945689084008336,106,39524,-0.013956621289253235,0.0030479771085083485,-0.007315705064684153,0.001598954200744629,0.0325867235660553,9.789175033569336,0.016049828125530595,9.789229402208559,449,1
2.9506994750117883,107,39529,-0.00015709170838817954,0.007242207415401936,-0.010798574425280094,0.039855606853961945,0.03695926070213318,9.82801628112793,0.013003209437322019,9.828166587846637,449,1
2.9557361339684576,108,39534,-0.005325594916939735,-0.0010642707347869873,9.931459499057382e-05,0.000941738486289978,0.03348316252231598,9.744291305541992,0.005431804194283564,9.744348878006427,449,1
2.9606491919839755,109,39539,-0.0040710605680942535,-0.01571936160326004,0.013161368668079376,0.014452695846557617,-0.0011075735092163086,9.809406280517578,0.020901997239025735,9.80941698998437,449,1
2.965696917963214,110,39544,-0.001961042871698737,0.016210544854402542,0.01142578013241291,-0.0038100481033325195,0.03255161643028259,9.787461280822754,0.01992927257216075,9.78751615313116,449,1
2.970653831027448,111,39549,-0.018261367455124855,-0.015121214091777802,-0.010085759684443474,-0.012305647134780884,0.015258461236953735,9.820240020751953,0.0257653101155957,9.82025958489739,449,1
2.975736330030486,112,39554,0.00523324403911829,-0.007584029342979193,-0.006318415515124798,-0.021467357873916626,0.05986030399799347,9.806916236877441,0.011172587832275309,9.807122421005012,449,1
2.9806343669770285,113,39559,-0.005324970465153456,-0.005324475467205048,0.00018457489204593003,-0.02137984335422516,0.0007635802030563354,9.813483238220215,0.0075325571585218515,9.813506557168324,449,1
2.9856333220377564,114,39564,-0.014974971301853657,0.00311207864433527,-0.004105294588953257,0.026826076209545135,0.014785930514335632,9.796342849731445,0.01583629510466249,9.796390738000929,449,1
2.9906584039563313,115,39569,-0.005389086902141571,0.006305827293545008,-0.004309638869017363,-0.03759397566318512,0.09219192713499069,9.80830192565918,0.009347657603709938,9.808807232448022,449,1
2.9955843980424106,116,39574,0.006497759371995926,0.01612403430044651,0.007041233126074076,0.003918752074241638,0.03330455720424652,9.82502555847168,0.018755914344922228,9.825082787171318,449,1
3.000674498034641,117,39579,-0.008348198607563972,-0.009349745698273182,0.012030941434204578,0.007144346833229065,-0.001286044716835022,9.800541877746582,0.017373937849749877,9.80054456614872,449,1
3.005690139019862,118,39584,0.015101486817002296,-0.01465712022036314,0.012859256006777287,0.0014134347438812256,0.04309983551502228,9.776402473449707,0.024662654810180307,9.77649757921991,449,1
3.010712055955082,119,39589,0.012673227116465569,-0.004411283414810896,-0.007556497119367123,-0.009592711925506592,0.07148346304893494,9.759840965270996,0.015400349204687129,9.760107457041313,449,1
3.015584368025884,120,39594,0.003885422833263874,0.004813069477677345,-0.025727462023496628,0.04180748760700226,0.08496668934822083,9.715738296508789,0.026460620751612363,9.716199763825687,449,1
